"Time (s)","Linear Acceleration x (m/s^2)","Linear Acceleration y (m/s^2)","Linear Acceleration z (m/s^2)"
4.308809600E-2,4.978011847E-1,1.309219599E0,2.171602249E-1
5.308809600E-2,4.986248314E-1,1.232787013E0,2.741260529E-1
6.308809600E-2,4.746282399E-1,1.212903857E0,1.931276321E-1
7.308834600E-2,4.728688300E-1,1.201925397E0,1.629343033E-1
8.308834600E-2,4.685816765E-1,1.209473252E0,1.964921951E-1
9.308834600E-2,4.402866960E-1,1.189676166E0,3.022212982E-1
1.030883460E-1,4.482336044E-1,1.168306231E0,3.172035217E-1
1.130883460E-1,4.229392111E-1,1.178008318E0,2.843217850E-1
1.230883460E-1,4.288178980E-1,1.189830542E0,2.370252609E-1
1.330883460E-1,4.180785716E-1,1.185256004E0,2.353324890E-1
1.430883460E-1,4.266796410E-1,1.178956032E0,2.577762604E-1
1.530883460E-1,4.363478124E-1,1.140032530E0,2.733421326E-1
1.630883460E-1,4.521775842E-1,1.135162115E0,2.795629501E-1
1.730883460E-1,4.859499335E-1,1.137486935E0,2.451772690E-1
1.830883460E-1,4.763225317E-1,1.136514306E0,2.273283005E-1
1.930883460E-1,4.564169943E-1,1.132450461E0,2.116765976E-1
2.030883460E-1,4.642712772E-1,1.134979129E0,2.341413498E-1
2.130883460E-1,4.398108721E-1,1.120297074E0,3.258686066E-1
2.230883460E-1,4.526232183E-1,1.131399989E0,3.431882858E-1
2.330883460E-1,4.631110728E-1,1.167414784E0,3.050842285E-1
2.430883460E-1,4.860612154E-1,1.168699145E0,3.050041199E-1
2.530883460E-1,4.537966549E-1,1.135747790E0,2.831878662E-1
2.630883460E-1,4.210028052E-1,1.172157884E0,2.613286972E-1
2.730883460E-1,4.109756052E-1,1.050729394E0,2.088956833E-1
2.830883460E-1,3.922515512E-1,9.573453665E-1,2.304620743E-1
2.930883460E-1,3.468349874E-1,8.566836119E-1,3.131265640E-1
3.030883460E-1,2.806731761E-1,7.784260511E-1,2.478809357E-1
3.130883460E-1,2.461087853E-1,7.024112940E-1,2.706241608E-2
3.230883800E-1,2.414190769E-1,6.245085001E-1,-9.558296204E-2
3.330883800E-1,2.481680512E-1,5.336897373E-1,8.099555969E-2
3.430883800E-1,1.737261862E-1,4.870281219E-1,2.737045288E-2
3.530883800E-1,1.489483863E-1,4.421190023E-1,-4.857444763E-2
3.630883800E-1,1.386768073E-1,3.770377636E-1,-8.474254608E-2
3.830883460E-1,1.470209956E-1,2.783981562E-1,8.616447449E-2
3.930883460E-1,1.268685758E-1,2.612241507E-1,1.417694092E-1
4.030883460E-1,1.342390329E-1,2.524776459E-1,1.474103928E-1
4.130883460E-1,1.634950936E-1,1.479570866E-1,1.914196014E-1
4.230883460E-1,1.269175410E-1,1.622240543E-1,1.279764175E-1
4.330883460E-1,9.701142460E-2,1.609604359E-1,5.520439148E-2
4.430883460E-1,7.054858655E-2,9.666252136E-2,2.587032318E-2
4.530883460E-1,1.248538494E-2,6.929790974E-2,8.098220825E-2
4.630883460E-1,-1.262785494E-2,9.293782711E-2,2.598762512E-3
4.730883460E-1,1.194894314E-2,6.495821476E-2,-1.800823212E-2
4.830883460E-1,3.418539464E-2,8.835160732E-2,-2.884960175E-2
4.930883460E-1,3.544490039E-2,6.326019764E-2,8.512783051E-2
5.030883460E-1,-2.047938108E-2,8.286440372E-2,8.446979523E-2
5.130883460E-1,4.408521950E-2,6.689584255E-2,1.102313995E-1
5.230883460E-1,3.039009869E-2,4.233014584E-2,1.142263412E-1
5.330883460E-1,6.309811771E-2,3.543317318E-2,1.203393936E-1
5.430883460E-1,6.814853102E-2,4.621243477E-2,7.110881805E-2
5.530883460E-1,7.793109119E-2,8.311152458E-3,4.981994629E-3
5.630883460E-1,7.411701232E-2,-2.208936214E-2,1.554298401E-2
5.730883790E-1,5.822277069E-2,1.809871197E-2,1.155157089E-1
5.830883790E-1,4.437427223E-2,-2.672314644E-3,1.366996765E-1
5.930883790E-1,3.248620033E-2,1.522374153E-2,9.569263458E-2
6.030883790E-1,2.092324197E-2,5.254983902E-2,4.516506195E-2
6.130883790E-1,-2.155095339E-2,5.405938625E-2,-2.928161621E-2
6.330883450E-1,1.661424339E-2,3.965675831E-2,9.273242950E-2
6.430883450E-1,2.677986026E-2,4.416346550E-3,9.525489807E-2
6.530883450E-1,2.526763082E-2,8.447492123E-2,1.026353836E-1
6.630883450E-1,2.698795497E-2,6.042766571E-2,8.584690094E-2
6.730883450E-1,3.989873827E-2,5.729722977E-2,1.072406769E-1
6.830883450E-1,3.417539597E-2,5.366504192E-2,9.743213654E-2
6.930883450E-1,4.064875096E-2,2.362692356E-2,6.606864929E-2
7.030883450E-1,1.836749911E-2,1.097309589E-2,4.438877106E-2
7.130883450E-1,2.343896031E-2,-5.762934685E-3,2.285003662E-2
7.230883450E-1,9.486854076E-3,1.604652405E-2,-2.258682251E-2
7.330883450E-1,-1.485444605E-2,3.533244133E-3,2.519607544E-2
7.430883450E-1,-2.344043553E-2,-2.106857300E-2,1.787567139E-2
7.530883450E-1,-3.596065938E-2,-4.270792007E-3,3.463172913E-2
7.630883450E-1,-2.582746744E-2,-6.545257568E-2,3.003978729E-2
7.730883450E-1,-6.832323968E-2,-7.699525356E-2,4.205703735E-3
7.830883450E-1,-6.446576118E-2,-8.259594440E-2,3.604984283E-2
7.930883450E-1,-9.356528521E-2,-1.060020924E-1,8.250713348E-2
8.030883450E-1,-4.184277356E-2,-6.816875935E-2,6.459903717E-2
8.130883450E-1,-1.048719883E-2,-7.083106041E-2,8.266639709E-2
8.230883780E-1,2.011850476E-3,-6.599223614E-2,5.770969391E-2
8.330883780E-1,2.650186419E-2,-6.864309311E-2,-7.994651794E-3
8.430883780E-1,1.806601882E-3,-4.511153698E-2,2.870559692E-3
8.530883780E-1,6.839260459E-3,-4.140782356E-2,-3.166198730E-3
8.630883780E-1,-1.060841978E-2,-5.767714977E-2,-4.574775696E-3
8.830883440E-1,2.276720107E-2,-5.112087727E-2,3.056240082E-2
8.930883440E-1,2.533602715E-2,-2.313339710E-2,2.411746979E-2
9.030883440E-1,-4.950106144E-3,-2.664530277E-2,-6.320953369E-3
9.130883440E-1,-1.998111606E-3,-4.896247387E-2,-4.148960114E-2
9.230883440E-1,-3.624109924E-2,-4.169189930E-2,-3.821659088E-2
9.330883440E-1,-4.144939780E-2,2.906537056E-2,-1.076602936E-2
9.430883440E-1,-1.397891343E-2,1.556289196E-2,4.775905609E-2
9.530883440E-1,7.530540228E-3,-1.342535019E-2,1.803245544E-1
9.630883440E-1,-4.790244997E-2,1.066637039E-2,1.736536026E-1
9.730883440E-1,-2.337735891E-2,3.021430969E-2,-5.366134644E-2
9.830883440E-1,4.378223419E-2,3.502750397E-2,-1.469297409E-1
9.930883440E-1,3.824870288E-2,-2.243876457E-3,-6.524944305E-2
1.003088344E0,-6.593704224E-3,-4.764008522E-2,-5.759048462E-2
1.013088344E0,2.163329720E-2,-2.706396580E-2,-4.252624512E-2
1.023088344E0,1.293978095E-2,-4.635107517E-2,-2.493190765E-2
1.033088344E0,-9.683221579E-4,-5.793249607E-2,-5.752277374E-2
1.043088344E0,-1.875714958E-2,-4.021978378E-2,-8.583068848E-3
1.053088344E0,-5.895346403E-3,-5.996811390E-2,5.731868744E-2
1.063088344E0,-5.934983492E-4,-3.153264523E-2,5.149936676E-2
1.073088377E0,-1.445560157E-2,-4.772269726E-2,1.028556824E-1
1.083088377E0,-2.462342381E-2,-2.489912510E-2,1.251401901E-1
1.093088377E0,-9.602442384E-3,-3.753316402E-2,3.450393677E-2
1.103088377E0,-3.849500418E-2,-3.253412247E-2,1.778221130E-2
1.113088377E0,-1.782038808E-2,-1.554679871E-2,-4.683780670E-2
1.133088343E0,-1.401004195E-2,-3.164863586E-2,-6.349182129E-2
1.143088343E0,-1.081539690E-2,-3.257906437E-2,-1.052284241E-2
1.153088343E0,2.021789551E-3,-3.739953041E-3,3.306865692E-2
1.163088343E0,-2.048164606E-3,8.119106293E-3,5.267429352E-2
1.173088343E0,1.537218690E-2,6.461143494E-5,-2.124023438E-2
1.183088343E0,1.549632847E-2,3.618240356E-3,-4.735088348E-2
1.193088343E0,1.514802873E-2,4.090189934E-3,-4.726886749E-2
1.203088343E0,3.048419952E-3,-3.545880318E-2,-4.705047607E-2
1.213088343E0,-2.376191318E-2,-9.140634537E-2,5.902290344E-3
1.223088343E0,-3.362980485E-2,-8.210372925E-2,-8.802413940E-4
1.233088343E0,2.208396792E-3,-6.133830547E-2,5.449485779E-2
1.243088343E0,4.189297557E-2,-6.584262848E-2,1.191701889E-1
1.253088343E0,-8.388012648E-4,-7.357442379E-2,3.043651581E-2
1.263088343E0,1.243591309E-2,-4.792368412E-2,-8.464050293E-2
1.273088343E0,1.649931073E-2,-1.894450188E-2,-1.564359665E-1
1.283088343E0,2.421936393E-2,1.664566994E-2,-1.225566864E-1
1.293088343E0,1.940575242E-2,3.645670414E-2,7.909297943E-2
1.303088343E0,4.138824344E-2,5.765724182E-2,1.201477051E-1
1.313088343E0,2.791318297E-2,9.757161140E-2,1.079940796E-1
1.323088376E0,4.766219854E-2,8.628106117E-2,6.167507172E-2
1.333088376E0,2.961698174E-2,6.568622589E-2,4.364585876E-2
1.343088376E0,3.686492145E-2,5.408430099E-2,5.182456970E-2
1.353088376E0,3.244973719E-2,4.533982277E-2,6.728744507E-2
1.363088376E0,1.387719810E-2,4.642117023E-2,5.886650085E-2
1.383088342E0,-6.287202239E-3,3.656387329E-2,2.053070068E-2
1.393088342E0,-2.279958129E-2,4.280352592E-2,-1.171016693E-2
1.403088342E0,-2.743607759E-2,1.817619801E-2,6.378173828E-3
1.413088342E0,-4.169285297E-2,-1.057040691E-2,6.768894196E-2
1.423088342E0,-3.604052961E-2,-2.666389942E-2,6.689453125E-2
1.433088342E0,-2.204254270E-2,-3.957903385E-2,5.190086365E-2
1.443088342E0,-3.365099430E-2,-1.582789421E-2,3.466701508E-2
1.453088342E0,-4.276515543E-2,8.729696274E-4,1.746177673E-2
1.463088342E0,-9.174570441E-3,5.532264709E-3,9.812355042E-3
1.473088342E0,-7.597982883E-3,-1.711368561E-3,4.555702209E-3
1.483088342E0,5.539521575E-3,1.480162144E-2,7.587337494E-2
1.493088342E0,4.745551199E-2,-5.504846573E-3,4.646968842E-2
1.503088342E0,4.569806904E-2,-9.956479073E-3,4.562091827E-2
1.513088342E0,1.713986695E-2,-3.375411034E-2,-2.709388733E-2
1.523088342E0,3.665705025E-2,-1.449990273E-2,-1.122379303E-2
1.533088342E0,8.174970746E-3,1.468610764E-2,-6.950950623E-2
1.543088342E0,1.092040539E-2,1.261842251E-2,-4.880714417E-2
1.553088342E0,1.523993909E-2,6.118059158E-3,-2.326107025E-2
1.566806191E0,2.200776339E-2,4.303872585E-2,5.262660980E-2
1.576806224E0,5.492021143E-2,6.954169273E-2,1.583290100E-2
1.586806224E0,2.295424789E-2,6.838226318E-2,2.189731598E-2
1.596806224E0,4.613974690E-2,8.057641983E-2,7.566928864E-2
1.606806224E0,4.337540269E-2,7.270264626E-2,7.422447205E-2
1.616806224E0,3.622867167E-2,7.783055305E-2,2.090206146E-1
1.636806190E0,1.015394926E-3,9.482645988E-2,4.917240143E-2
1.646806190E0,1.286409050E-2,9.595036507E-2,-8.481216431E-2
1.656806190E0,2.406856418E-2,1.468384266E-2,-8.204555511E-2
1.666806190E0,5.089789629E-4,1.786887646E-2,-5.002784729E-2
1.676806190E0,-2.667546272E-3,-8.169412613E-4,-2.484893799E-2
1.686806190E0,2.401456982E-2,5.668616295E-2,-7.596206665E-2
1.696806190E0,2.600282431E-2,5.488383770E-2,1.187515259E-2
1.706806190E0,-1.071304828E-2,4.160308838E-2,3.754520416E-2
1.716806190E0,-7.172301412E-3,5.307042599E-2,3.704071045E-2
1.726806190E0,1.453377306E-2,6.099069118E-2,7.945632935E-2
1.736806190E0,2.894925326E-2,5.276477337E-2,1.718502045E-1
1.746806190E0,-7.890678942E-3,9.105205536E-3,1.825151443E-1
1.756806190E0,-9.351320565E-3,-3.489255905E-4,1.809253693E-1
1.766806190E0,7.551223040E-3,-2.950346470E-2,8.108234406E-2
1.776806190E0,-2.368117869E-2,-1.833951473E-2,2.907180786E-2
1.786806190E0,-1.004022360E-2,2.059602737E-2,1.321029663E-2
1.796806190E0,-1.946110278E-2,1.111578941E-2,5.752468109E-2
1.806806190E0,-1.514836401E-2,5.638146400E-2,2.319049835E-2
1.816806190E0,2.545118332E-3,9.478080273E-2,5.117416382E-2
1.826806223E0,1.094885170E-3,1.087938547E-1,5.514717102E-2
1.836806223E0,3.647193313E-3,1.023575068E-1,7.806110382E-2
1.846806223E0,1.484130323E-2,9.225344658E-2,4.330539703E-2
1.856806223E0,1.675531268E-3,3.063476086E-2,2.511692047E-2
1.866806223E0,1.267561316E-2,1.004624367E-2,9.384155273E-3
1.886806189E0,2.552395314E-2,9.709954262E-3,-5.757236481E-2
1.896806189E0,6.600479782E-2,1.456022263E-3,2.770709991E-2
1.906806189E0,5.936839059E-2,2.098441124E-3,2.944183350E-2
1.916806189E0,2.061766386E-2,1.932239532E-2,8.859920502E-2
1.926806189E0,3.153934330E-2,3.326487541E-2,1.354408264E-2
1.936806189E0,2.413074672E-2,3.451716900E-2,-6.160926819E-2
1.946806189E0,4.582903534E-2,5.045533180E-2,-6.966781616E-2
1.956806189E0,1.787640154E-2,5.753731728E-2,-3.388404846E-3
1.966806189E0,3.310038149E-2,8.184039593E-2,6.296539307E-2
1.976806189E0,4.724249244E-3,8.855247498E-2,1.339788437E-1
1.986806189E0,7.944032550E-4,8.390080929E-2,1.448774338E-1
1.996806189E0,1.641651243E-2,8.712589741E-2,8.131217957E-2
2.006806189E0,-2.784917504E-2,6.994259357E-2,7.024097443E-2
2.016806189E0,1.732756943E-2,6.500983238E-2,1.119012833E-1
2.026806189E0,9.866729379E-3,4.154729843E-2,1.201438904E-1
2.036806189E0,-7.786750793E-3,3.797066212E-2,9.976577759E-2
2.046806189E0,1.004566997E-2,1.846766472E-2,2.205181122E-2
2.056806189E0,-2.525689453E-2,5.513906479E-2,-2.916526794E-2
2.066806189E0,-2.880549431E-2,6.147885323E-2,-3.716468811E-2
2.076806222E0,-7.275864482E-4,5.664980412E-2,-4.339218140E-3
2.086806222E0,-3.548669070E-2,6.716573238E-2,7.171726227E-2
2.096806222E0,-2.674911171E-2,9.204864502E-2,4.243469238E-2
2.106806222E0,-4.169625044E-2,5.375218391E-2,8.006191254E-2
2.116806222E0,-2.256374806E-2,1.288664341E-2,5.302906036E-2
2.136806188E0,6.562098861E-3,-3.889167309E-2,8.737564087E-3
2.146806188E0,-9.075939655E-3,-4.426658154E-2,2.029991150E-2
2.156806188E0,8.027315140E-3,-5.283021927E-2,1.532268524E-2
2.166806188E0,9.808093309E-3,-3.398323059E-2,1.766967773E-2
2.176806188E0,1.116422564E-2,-5.017769337E-2,6.801795959E-2
2.186806188E0,1.004508883E-2,-5.372667313E-2,7.536506653E-2
2.196806188E0,2.116940916E-2,-3.111112118E-2,6.832408905E-2
2.206806188E0,3.240827098E-2,-3.816616535E-2,-1.067161560E-2
2.216806188E0,7.695049047E-3,-2.662611008E-2,-1.792049408E-2
2.226806188E0,-1.016812772E-2,-1.995790005E-2,-3.715324402E-2
2.236806188E0,3.192965686E-2,-1.128792763E-3,5.888938904E-3
2.246806188E0,2.580360696E-2,1.809620857E-2,1.101493835E-3
2.256806188E0,2.691120282E-2,4.747676849E-2,2.033615112E-2
2.266806188E0,1.360280812E-2,7.883536816E-2,2.993679047E-2
2.276806188E0,-2.405054867E-3,7.824015617E-2,3.941917419E-2
2.286806188E0,2.727486193E-3,9.582674503E-2,7.270622253E-2
2.296806188E0,-1.120089740E-2,8.764874935E-2,7.461643219E-2
2.306806188E0,1.189016551E-2,6.094670296E-2,5.474281311E-2
2.316806188E0,6.886471063E-3,2.142870426E-2,4.194259644E-2
2.326806221E0,-1.043502986E-2,-3.711581230E-3,6.505775452E-2
2.336806221E0,4.415364936E-2,2.948439121E-2,-3.620052338E-2
2.346806221E0,1.174479723E-2,5.510210991E-3,6.608581543E-2
2.356806221E0,2.383610979E-2,1.162350178E-2,1.613693237E-1
2.366806221E0,1.418787986E-2,2.781283855E-2,1.609544754E-1
2.386806187E0,-2.555726841E-2,3.369891644E-2,3.323078156E-2
2.396806187E0,1.373867691E-2,2.099955082E-2,1.691818237E-3
2.406806187E0,-1.817690954E-2,1.627504826E-2,-5.607318878E-2
2.416806187E0,-3.265950829E-2,-3.101646900E-2,-4.433155060E-2
2.426806187E0,-4.827712849E-2,-6.950771809E-2,-3.716659546E-2
2.436806187E0,-6.881093979E-2,-4.544770718E-2,-1.038608551E-1
2.446806187E0,-4.878028482E-2,-3.651416302E-2,-7.455348969E-2
2.456806187E0,1.593293622E-2,-5.789959431E-2,1.152887344E-1
2.466806187E0,3.190623969E-2,-3.395521641E-2,1.375131607E-1
2.476806187E0,5.240403116E-2,2.120733261E-3,1.019754410E-1
2.486806187E0,4.515399039E-2,-3.217947483E-2,8.752155304E-2
2.496806187E0,4.939896986E-2,3.418803215E-3,2.250766754E-2
2.506806187E0,3.834431246E-2,-2.451777458E-2,6.744384766E-2
2.516806187E0,1.443827525E-2,2.244615555E-2,5.261325836E-2
2.526806187E0,1.718289405E-2,-2.531647682E-3,4.734802246E-2
2.536806187E0,-3.579439968E-2,1.855802536E-2,3.850936890E-3
2.546806187E0,-3.774352372E-2,5.460619926E-2,2.029418945E-2
2.556806187E0,-2.450553328E-2,6.448233128E-2,2.000617981E-2
2.566806187E0,-2.761910111E-2,5.784809589E-2,-6.581306458E-3
2.576806220E0,-8.086495101E-3,6.542277336E-2,1.470184326E-2
2.586806220E0,-3.152512759E-2,3.687322140E-2,1.006011963E-1
2.596806220E0,5.572505295E-3,1.602518559E-2,3.095149994E-2
2.606806220E0,3.620900959E-2,4.763722420E-3,-1.953601837E-2
2.616806220E0,1.127506420E-2,-2.525460720E-2,2.579212189E-2
2.636806186E0,3.137589246E-2,-4.580128193E-2,3.311443329E-2
2.646806186E0,5.398140103E-2,-4.973506927E-2,1.146211624E-1
2.656806186E0,1.997351646E-2,-7.594764233E-2,7.870483398E-2
2.666806186E0,-1.205847040E-2,-5.942833424E-2,4.034328461E-2
2.676806186E0,-4.782682285E-2,-6.682717800E-2,-5.786132812E-2
2.686806186E0,-1.435578614E-2,-3.201782703E-2,-3.614330292E-2
2.696806186E0,-3.288267925E-2,2.529978752E-2,5.514049530E-2
2.706806186E0,-2.512267604E-2,4.845499992E-2,6.014633179E-2
2.716806186E0,1.196333766E-2,5.083370209E-2,5.775833130E-2
2.726806186E0,1.070957631E-2,4.198741913E-2,8.866786957E-2
2.736806186E0,2.534914017E-2,8.493375778E-2,5.481243134E-2
2.746806186E0,3.463160247E-2,6.660521030E-2,2.794933319E-2
2.756806186E0,3.360515088E-2,8.393573761E-2,-8.528709412E-3
2.766806186E0,1.726246625E-2,6.978809834E-2,-2.111339569E-2
2.776806186E0,9.290650487E-3,1.313233376E-2,5.495834351E-2
2.786806186E0,-8.735239506E-3,3.708910942E-2,8.814430237E-2
2.796806186E0,-1.139978319E-2,3.312277794E-2,9.750175476E-2
2.806806186E0,-3.434848040E-2,3.860151768E-2,4.459953308E-2
2.816806186E0,3.853898495E-3,1.493906975E-2,1.798629761E-2
2.826806186E0,-6.196953356E-3,1.307523251E-2,4.647064209E-2
2.836806186E0,-4.241667315E-2,4.855036736E-3,2.718162537E-2
2.846806186E0,-1.039133966E-2,-1.006269455E-2,1.753711700E-2
2.856806186E0,-2.451291308E-2,-7.050371170E-2,7.013511658E-2
2.866806186E0,-1.033486053E-2,-7.283449173E-2,7.253646851E-2
2.886806152E0,3.161310032E-2,-6.127583981E-2,-1.817893982E-2
2.896806152E0,2.281531505E-2,-9.752166271E-2,2.518939972E-2
2.906806152E0,1.483388990E-2,-9.415268898E-2,4.238319397E-2
2.916806152E0,8.535515517E-3,-9.914541245E-2,9.564876556E-2
2.926806152E0,7.774431258E-3,-3.117477894E-2,7.484912872E-2
2.936806152E0,3.415142000E-2,-1.685297489E-2,-1.138687134E-3
2.946806152E0,3.564012796E-2,-1.621043682E-2,2.798938751E-2
2.956806152E0,6.610173732E-3,4.758834839E-4,1.152420044E-2
2.966806152E0,1.161963865E-2,7.477760315E-3,-2.556800842E-3
2.976806152E0,1.021543518E-2,4.774391651E-2,6.952476501E-2
2.986806152E0,9.205672890E-3,6.591451168E-2,1.008338928E-1
2.996806152E0,2.086805180E-2,4.474163055E-2,7.215213776E-2
3.006806152E0,2.773761004E-2,1.573812962E-2,5.535411835E-2
3.016806152E0,1.961710304E-2,4.390370846E-2,2.894020081E-2
3.026806152E0,1.336428896E-2,4.281163216E-2,1.681613922E-2
3.036806152E0,1.404471137E-2,-1.133668423E-2,4.295063019E-2
3.046806152E0,-2.066612244E-3,1.219081879E-2,5.007171631E-2
3.056806152E0,1.864075661E-3,2.178120613E-2,4.288768768E-2
3.066806152E0,-1.564589515E-2,2.220213413E-2,3.336429596E-2
3.076806185E0,-8.489307016E-3,-6.266832352E-3,2.621650696E-2
3.086806185E0,-8.090041578E-3,-3.166258335E-2,7.188796997E-3
3.096806185E0,2.472639084E-3,-4.188644886E-2,2.431869507E-4
3.106806185E0,5.386514589E-3,-4.461991787E-2,5.308151245E-3
3.116806185E0,5.361894146E-3,-5.390441418E-2,5.355072021E-2
3.126806185E0,5.737265572E-3,-3.877031803E-2,5.397605896E-2
3.136806185E0,8.601676673E-3,-6.844568253E-2,5.928230286E-2
3.146806185E0,1.389808953E-3,-6.168746948E-2,3.592872620E-2
3.156806185E0,-1.295786351E-2,-4.041910172E-2,-1.768112183E-3
3.166806185E0,4.556566477E-3,-3.119719028E-2,-2.510452271E-2
3.176806185E0,1.530928724E-2,-3.375685215E-2,-3.404808044E-2
3.186806185E0,2.829268761E-2,-5.281126499E-2,-2.619361877E-2
3.196806185E0,1.443020254E-2,-2.790379524E-2,3.445434570E-2
3.206806185E0,-1.717928052E-2,-2.693915367E-2,4.721641541E-2
3.216806185E0,2.387468517E-2,-9.583234787E-3,1.923274994E-2
3.226806185E0,3.617196903E-2,2.434253693E-3,4.384803772E-2
3.236806185E0,-3.303389996E-3,1.598119736E-3,1.805877686E-2
3.246806185E0,1.908412762E-2,2.394449711E-2,6.527900696E-3
3.256806185E0,-3.108706325E-2,1.628053188E-2,1.025562286E-1
3.266806185E0,-2.998279408E-2,-1.921415329E-3,1.050796509E-1
3.276806185E0,-2.447612584E-3,-2.082848549E-2,5.723381042E-2
3.286806185E0,6.455240771E-3,-1.360809803E-2,3.330421448E-2
3.296806185E0,-1.907652989E-2,-3.733718395E-2,3.333663940E-2
3.306806185E0,-3.586750478E-2,-4.846453667E-2,9.512901306E-3
3.316806185E0,-2.119081840E-2,-4.628717899E-2,2.636909485E-3
3.326806218E0,1.063767821E-2,-3.108322620E-2,5.576801300E-2
3.336806218E0,1.205510646E-2,-1.797187328E-2,1.759824753E-1
3.346806218E0,-1.764149219E-2,1.292586327E-3,1.571893692E-1
3.356806218E0,-2.853705361E-2,4.177570343E-3,-7.497406006E-2
3.366806218E0,-1.076539606E-2,-4.924654961E-3,-1.395454407E-1
3.386806184E0,-4.534535110E-3,-6.219446659E-2,-9.204864502E-3
3.396806184E0,-5.371120572E-2,-5.069935322E-2,-6.330776215E-2
3.406806184E0,-2.775876597E-2,-3.575861454E-2,-8.133792877E-2
3.416806184E0,1.756627113E-2,-2.757310867E-2,6.048202515E-3
3.426806184E0,9.777586907E-3,-2.937614918E-2,8.858966827E-2
3.436806184E0,9.123984724E-3,-2.707707882E-2,9.921073914E-2
3.446806184E0,2.526380308E-2,9.703636169E-5,1.479310989E-1
3.456806184E0,8.660934865E-3,9.258985519E-4,1.005220413E-1
3.466806184E0,-8.835922927E-3,1.189482212E-2,3.368663788E-2
3.476806184E0,-2.226012945E-2,2.193176746E-2,-4.561424255E-3
3.486806184E0,-3.146054223E-2,-7.905960083E-4,-3.551673889E-2
3.496806184E0,-4.664203152E-2,1.189744473E-2,2.000617981E-2
3.506806184E0,-1.202590615E-1,-3.385317326E-2,-2.959823608E-2
3.516806184E0,-5.169321969E-2,-5.900502205E-3,5.996227264E-2
3.526806184E0,-3.988448903E-2,-5.915284157E-3,2.754306793E-2
3.536806184E0,-2.246993035E-2,1.775765419E-2,4.058742523E-2
3.546806217E0,1.330540329E-2,1.244258881E-2,2.965450287E-2
3.556806217E0,1.979939640E-2,-5.286717415E-2,1.168632507E-1
3.566806217E0,4.043631628E-2,-7.455539703E-2,6.529521942E-2
3.576806250E0,4.268084094E-2,-9.399700165E-2,-3.897571564E-2
3.586806250E0,5.507156998E-2,-7.675075531E-2,-3.539752960E-2
3.596806250E0,6.281692535E-2,-1.255351305E-1,1.381492615E-2
3.606806250E0,3.831541166E-2,-1.280356646E-1,2.723884583E-2
3.616806250E0,4.026044160E-2,-1.375987530E-1,4.548072815E-2
3.636806216E0,2.627462149E-3,-1.172649860E-1,1.057510376E-1
3.646806216E0,-1.594181359E-2,-9.173774719E-2,6.883144379E-2
3.656806216E0,-9.057827294E-3,-4.776561260E-2,-2.803802490E-2
3.666806216E0,-9.157486260E-3,-5.016875267E-2,-3.406429291E-2
3.676806216E0,-1.590710878E-2,-4.556930065E-2,5.922317505E-4
3.686806216E0,9.714897722E-3,1.913905144E-3,3.522586823E-2
3.696806216E0,6.333630532E-2,2.691173553E-2,7.451248169E-2
3.706806216E0,6.369549781E-2,3.614771366E-2,8.005142212E-2
3.716806216E0,3.760309890E-2,4.082882404E-2,1.187362671E-1
3.726806216E0,3.301971406E-2,1.967036724E-2,6.371784210E-2
3.736806216E0,6.084144115E-4,3.354680538E-2,3.755569458E-3
3.746806216E0,-5.395100266E-2,-2.958416939E-3,-1.073646545E-2
3.756806216E0,-4.696026817E-2,-4.563331604E-3,1.331901550E-2
3.766806216E0,-1.069061086E-2,2.940177917E-3,2.095222473E-2
3.776806216E0,-3.996061534E-2,-7.927179337E-3,4.308795929E-2
3.786806216E0,-6.416895241E-2,-6.583213806E-3,7.723999023E-2
3.796806216E0,-3.786503524E-2,-2.457177639E-2,9.699916840E-2
3.806806216E0,-2.805975825E-2,-2.625966072E-2,5.922603607E-2
3.816806216E0,-4.186769575E-2,-7.166898251E-2,3.571796417E-2
3.826806249E0,-5.740341544E-2,-9.010159969E-2,1.232337952E-2
3.836806249E0,-4.098937660E-2,-1.170139313E-1,1.066970825E-2
3.856806215E0,-2.758526802E-2,-1.311316490E-1,-3.960609436E-3
3.866806215E0,-5.018777400E-2,-1.306066513E-1,2.166748047E-3
3.886806181E0,-3.144800663E-3,-9.586429596E-2,5.317878723E-2
3.896806181E0,3.796791285E-2,-9.409368038E-2,4.517078400E-2
3.906806214E0,-7.607564330E-4,-7.890868187E-2,-2.285671234E-2
3.916806214E0,-1.598522067E-3,-6.205630302E-2,-4.073047638E-2
3.926806214E0,2.374254167E-3,-6.918776035E-2,-1.550960541E-2
3.936806214E0,-7.925331593E-4,-4.259550571E-2,8.397293091E-2
3.946806214E0,-9.261094034E-3,-9.809255600E-3,1.210336685E-1
3.956806214E0,-3.264702857E-3,1.381111145E-2,4.282760620E-2
3.966806214E0,-2.108845860E-2,2.299213409E-2,4.888534546E-3
3.976806214E0,4.077777267E-3,7.029175758E-3,2.180385590E-2
3.986806214E0,-1.870433986E-2,8.217453957E-3,1.005649567E-2
3.996806214E0,-1.000547409E-2,2.704226971E-2,1.762390137E-2
4.006806214E0,-1.792604476E-2,4.065215588E-2,5.624198914E-2
4.016806214E0,2.936089784E-2,4.432785511E-2,2.057933807E-2
4.026806214E0,1.139569283E-2,1.578271389E-2,1.344490051E-2
4.036806214E0,7.348753512E-3,2.976679802E-2,1.817417145E-2
4.046806214E0,1.018653065E-2,1.725172997E-2,-2.740764618E-2
4.056806214E0,-1.349741220E-2,-5.963993073E-2,7.789230347E-2
4.066806214E0,-3.490968794E-2,-3.166854382E-2,3.748321533E-2
4.076806247E0,-3.024411201E-2,-3.605961800E-3,1.866626740E-2
4.086806247E0,-2.992679179E-2,-2.083659172E-2,1.664924622E-2
4.096806247E0,-3.157624602E-2,-3.533017635E-2,1.230716705E-2
4.106806247E0,-2.147109807E-2,-5.820763111E-2,3.451251984E-2
4.116806247E0,-3.749327362E-2,-3.966355324E-2,2.572822571E-2
4.136806213E0,-1.261785626E-2,-4.902803898E-2,2.953338623E-2
4.146806213E0,3.035729378E-2,-5.862462521E-2,6.052970886E-3
4.156806213E0,1.510147750E-2,-6.281328201E-2,-6.042194366E-2
4.166806213E0,3.950208426E-3,-6.357896328E-2,-1.179790497E-2
4.176806213E0,3.036028892E-2,-8.225572109E-2,3.225326538E-2
4.186806213E0,-5.355969071E-3,-3.969633579E-2,2.628326416E-2
4.196806213E0,-3.759534657E-2,-1.970028877E-2,1.532268524E-2
4.216806179E0,1.184080541E-2,-2.604722977E-3,2.201957703E-1
4.226806179E0,-6.851762533E-3,-2.506637573E-2,2.659635544E-1
4.236806179E0,-2.278129756E-2,-1.112353802E-2,1.150646210E-1
4.246806179E0,-1.852203906E-2,-1.071870327E-2,-1.725769043E-1
4.256806179E0,4.688428342E-2,-4.502344131E-2,-1.918249130E-1
4.266806179E0,5.397548527E-2,-4.647898674E-2,-9.301471710E-2
4.276806179E0,-1.806998253E-2,-2.138650417E-2,3.018093109E-2
4.286806179E0,-7.559835911E-3,-8.379459381E-3,-1.665019989E-2
4.296806179E0,-6.466776133E-3,-8.432149887E-3,-1.163492203E-1
4.306806179E0,-1.683342457E-2,-1.377224922E-3,-8.915996552E-2
4.316806179E0,-1.677264273E-2,-5.986690521E-3,3.538131714E-4
4.326806212E0,-2.723243833E-2,-5.921483040E-3,8.029270172E-2
4.336806212E0,-1.083046198E-2,1.674389839E-2,1.240787506E-1
4.346806212E0,1.681450009E-2,-1.810383797E-2,1.578178406E-1
4.356806212E0,-9.954988956E-3,4.370212555E-4,1.337547302E-1
4.366806212E0,-3.269983828E-2,1.243948936E-2,6.625461578E-2
4.386806178E0,-1.667487621E-2,1.461887360E-2,-2.567291260E-2
4.396806178E0,-4.011128843E-2,9.302854538E-3,4.845714569E-2
4.406806178E0,-5.059525371E-2,2.664315701E-2,7.013702393E-2
4.416806178E0,-4.801583290E-2,1.955163479E-2,5.583000183E-2
4.426806178E0,-4.789485037E-2,1.199758053E-2,1.989078522E-2
4.436806178E0,-1.397709548E-2,-3.131449223E-2,7.429122925E-4
4.446806178E0,-8.794486523E-3,-3.503417969E-2,1.774978638E-2
4.456806178E0,-1.855535805E-2,-5.168712139E-2,1.825523376E-2
4.466806178E0,-1.356588304E-2,-7.473051548E-2,1.652431488E-2
4.476806178E0,1.501995325E-2,-9.019267559E-2,3.401660919E-2
4.486806178E0,2.109590173E-2,-9.332454205E-2,2.283096313E-2
4.496806178E0,3.655548394E-2,-9.382855892E-2,-5.295562744E-2
4.506806178E0,4.428899288E-2,-8.162128925E-2,-1.129436493E-2
4.516806178E0,4.360482097E-2,-8.328628540E-2,1.046609879E-1
4.526806178E0,-2.214461565E-3,-6.859338284E-2,1.726217270E-1
4.536806178E0,1.911875606E-2,-5.285882950E-2,9.107589722E-4
4.546806178E0,2.199657261E-2,-9.393811226E-3,-1.774787903E-2
4.556806178E0,8.158326149E-3,-1.912617683E-2,-4.129409790E-2
4.566806178E0,6.260603666E-3,1.219034195E-2,-5.519676208E-2
4.576806211E0,2.190108597E-2,2.207529545E-2,2.670574188E-2
4.586806211E0,4.589300603E-2,2.436077595E-2,7.981872559E-2
4.596806211E0,4.305237532E-2,3.260052204E-2,9.198570251E-2
4.606806211E0,3.250037134E-2,5.545151234E-2,6.063365936E-2
4.616806211E0,3.623707592E-2,4.811215401E-2,2.181911469E-2
4.636806177E0,3.355550766E-2,5.508792400E-2,1.842403412E-2
4.646806177E0,-6.773233414E-3,3.640687466E-2,-2.507305145E-2
4.656806177E0,-6.073683500E-3,2.071547508E-2,-2.535343170E-2
4.666806177E0,-1.957292855E-2,1.946294308E-2,1.268959045E-2
4.676806177E0,-6.909340620E-2,5.528688431E-3,2.904796600E-2
4.686806177E0,-5.802287161E-2,-1.868236065E-2,4.049873352E-2
4.696806177E0,-4.594860971E-2,-4.048836231E-2,6.476402283E-3
4.706806177E0,-5.395290256E-2,-5.646419525E-2,1.337623596E-2
4.716806177E0,-4.451382160E-2,-4.485499859E-2,-1.059722900E-2
4.726806177E0,-3.950023651E-2,-6.334829330E-2,-3.246307373E-3
4.736806177E0,-8.055076003E-3,-6.641817093E-2,4.740238190E-2
4.746806177E0,-2.734349668E-2,-4.992771149E-2,5.502700806E-2
4.756806177E0,-6.391957402E-3,-5.081331730E-2,4.576873779E-2
4.766806177E0,1.411078870E-2,-3.539419174E-2,4.120349884E-2
4.776806177E0,1.485504210E-2,-4.690229893E-2,1.975631714E-2
4.786806177E0,1.515804231E-2,-4.410004616E-2,2.702236176E-2
4.796806177E0,1.217727363E-2,-3.187918663E-2,5.512237549E-3
4.806806177E0,1.774615049E-2,1.670241356E-3,-1.605701447E-2
4.816806177E0,2.255824208E-2,8.303165436E-3,-6.625175476E-3
4.826806210E0,-2.020463347E-3,1.652622223E-2,-1.651000977E-2
4.836806210E0,-1.020810008E-2,2.400016785E-2,-2.893829346E-2
4.846806210E0,1.494184136E-3,2.154839039E-2,8.859634399E-3
4.856806210E0,1.119929552E-2,6.471943855E-2,5.626869202E-2
4.866806210E0,1.889006793E-2,6.873250008E-2,6.760883331E-2
4.886806176E0,4.946823418E-2,5.477428436E-2,4.667758942E-2
4.896806176E0,3.574103117E-2,3.463673592E-2,6.950664520E-2
4.906806176E0,2.799719572E-3,5.265498161E-2,3.724288940E-2
4.916806176E0,3.489610553E-2,2.987599373E-2,-2.136421204E-2
4.926806176E0,1.404635608E-2,2.182459831E-2,-2.723026276E-2
4.936806176E0,1.170395315E-2,3.627634048E-2,-7.123470306E-2
4.946806176E0,1.190079749E-2,1.590633392E-2,-1.207828522E-2
4.956806176E0,7.794022560E-3,1.818335056E-2,4.728794098E-2
4.966806176E0,-5.627557635E-3,-3.965854645E-3,5.868625641E-2
4.976806176E0,-4.386335611E-3,-2.413475513E-2,4.128170013E-2
4.986806176E0,2.743571252E-2,-3.017222881E-2,4.537773132E-2
4.996806176E0,1.470737904E-2,-3.580284119E-2,9.262561798E-2
5.006806176E0,-6.357841194E-3,-1.277887821E-2,6.323432922E-2
5.016806176E0,-2.000701427E-2,1.674604416E-2,-5.246829987E-2
5.026806176E0,-1.507576555E-2,2.936959267E-3,-2.453708649E-2
5.036806176E0,-1.355937123E-2,-7.904887199E-3,1.974468231E-1
5.046806176E0,-2.378076315E-2,2.892327309E-2,2.254667282E-1
5.056806176E0,-5.527137220E-2,6.146740913E-2,-1.275291443E-1
5.066806176E0,-2.510894090E-2,5.037760735E-2,-2.315998077E-1
5.076806209E0,3.670804948E-2,-6.382226944E-3,-8.626556396E-2
5.086806209E0,3.499371558E-2,2.802252769E-3,4.056453705E-2
5.096806209E0,3.150434047E-2,2.445912361E-2,3.578281403E-2
5.106806209E0,3.380290419E-2,6.327402592E-2,2.583789825E-2
5.116806209E0,4.752820730E-2,7.237315178E-2,-5.837440491E-3
5.136806175E0,5.015212297E-2,2.001166344E-2,5.468082428E-2
5.146806175E0,3.829772770E-2,5.543565750E-2,7.526588440E-2
5.156806175E0,4.141994938E-2,2.716410160E-2,7.166290283E-2
5.166806175E0,4.860679805E-2,2.408361435E-2,9.419250488E-2
5.176806175E0,2.114296705E-2,9.924650192E-3,8.054256439E-2
5.186806175E0,-1.883307844E-2,-2.611041069E-3,3.563880920E-2
5.196806175E0,-4.636287689E-3,2.769935131E-2,2.900409698E-2
5.206806175E0,-9.886749089E-3,3.276443481E-2,7.722377777E-2
5.216806175E0,2.590894699E-3,5.627810955E-2,6.829643250E-2
5.226806175E0,-1.005209982E-2,6.420660019E-2,6.916522980E-2
5.236806175E0,-2.898388356E-2,9.217655659E-2,6.780624390E-2
5.246806175E0,-1.573167741E-3,8.521676064E-2,6.183624268E-2
5.256806175E0,5.066633224E-3,9.122180939E-2,4.886150360E-2
5.266806175E0,-7.452584803E-3,9.540307522E-2,5.035018921E-2
5.276806175E0,-1.361526549E-2,7.101643085E-2,3.749847412E-2
5.286806175E0,-2.290156484E-2,4.215657711E-2,1.033210754E-2
5.296806175E0,5.356997252E-2,-1.027882099E-2,-9.971618652E-3
5.306806175E0,1.204217598E-2,-1.448762417E-2,1.087856293E-2
5.316806175E0,3.477174416E-2,-7.341623306E-3,2.244091034E-2
5.326806208E0,2.176876366E-2,1.056993008E-2,1.744270325E-2
5.336806208E0,2.846344188E-2,2.163410187E-3,1.465263367E-1
5.346806241E0,1.328735054E-2,-1.407384872E-2,1.845207214E-1
5.356806241E0,-2.462957054E-3,-2.682554722E-2,7.864856720E-2
5.366806241E0,-1.793262362E-2,-2.943944931E-2,-1.554870605E-2
5.386806207E0,-1.406710595E-2,-8.944272995E-3,-1.106672287E-1
5.396806207E0,2.335309982E-3,-3.097808361E-2,4.248046875E-2
5.406806207E0,2.246515080E-2,4.193413258E-2,1.632595062E-2
5.416806207E0,3.596789762E-2,4.436266422E-2,1.432323456E-1
5.426806207E0,4.117244482E-2,5.519485474E-2,1.622037888E-1
5.436806207E0,5.240790173E-2,6.637215614E-2,9.943485260E-2
5.446806207E0,4.817578569E-2,5.132627487E-2,8.178520203E-2
5.456806207E0,4.294825718E-2,6.400835514E-2,1.721382141E-3
5.466806207E0,2.540167980E-2,7.643222809E-2,1.499652863E-2
5.476806207E0,-2.093210816E-3,4.560744762E-2,6.702423096E-3
5.486806207E0,1.400386542E-2,5.357551575E-2,1.285839081E-2
5.496806207E0,1.378912851E-2,6.418132782E-2,5.497264862E-2
5.506806207E0,-1.035334542E-2,5.796813965E-2,3.004550934E-2
5.516806207E0,-2.496675774E-2,2.014434338E-2,7.208442688E-2
5.526806207E0,-2.965111658E-2,1.900589466E-2,3.763484955E-2
5.536806207E0,-2.055131458E-2,2.562797070E-2,2.962207794E-2
5.546806207E0,-1.681574248E-2,3.512859344E-2,1.211357117E-2
5.556806207E0,-1.489953324E-2,2.131164074E-2,2.343940735E-2
5.566806207E0,-1.264185458E-2,1.003181934E-2,1.563358307E-2
5.576806240E0,2.460522950E-2,-1.525151730E-2,2.464294434E-2
5.586806240E0,-1.121836156E-2,-4.529941082E-2,9.711265564E-3
5.596806240E0,-6.727773696E-3,-5.758857727E-2,-7.462501526E-3
5.606806240E0,-9.702734649E-3,-2.550911903E-2,2.104663849E-2
5.616806240E0,-5.228184164E-4,-1.176202297E-2,8.978843689E-3
5.636806206E0,-8.232258260E-4,6.417512894E-3,3.995513916E-2
5.656806172E0,2.041888237E-2,2.252542973E-2,4.667282104E-2
5.666806172E0,5.631139502E-3,3.905177116E-2,4.148578644E-2
5.676806172E0,2.124181762E-2,4.348015785E-2,5.782508850E-2
5.686806172E0,-5.472282693E-2,3.802108765E-2,1.904964447E-2
5.696806172E0,3.572016954E-2,3.912198544E-2,8.792304993E-2
5.706806172E0,1.550086308E-2,2.499878407E-2,7.765960693E-2
5.716806172E0,1.446315367E-2,1.049625874E-2,9.367942810E-2
5.726806172E0,1.353420224E-2,4.363727570E-2,4.023361206E-2
5.736806172E0,5.728570744E-3,4.980397224E-2,3.936958313E-2
5.746806172E0,2.419117838E-3,4.897582531E-2,1.698684692E-2
5.756806172E0,-1.459010690E-2,5.788683891E-2,1.378917694E-2
5.766806172E0,4.182949662E-3,2.811408043E-2,3.355026245E-3
5.776806172E0,5.464000627E-3,-2.030014992E-2,-2.376174927E-2
5.786806172E0,1.912431419E-2,-2.676987648E-2,-7.597923279E-3
5.796806172E0,-2.609781921E-3,-1.929748058E-2,4.476833344E-2
5.806806172E0,-1.692041196E-2,2.499532700E-2,9.487152100E-2
5.816806172E0,-7.477276027E-3,1.400077343E-2,4.199314117E-2
5.826806172E0,-8.726902306E-4,2.822887897E-2,5.838584900E-2
5.836806172E0,-8.979132399E-3,2.520787716E-2,5.794620514E-2
5.846806172E0,3.564593568E-2,4.608607292E-2,2.637767792E-2
5.856806172E0,-1.023866795E-2,1.610636711E-3,7.132339478E-2
5.866806172E0,-1.798851602E-2,2.419710159E-3,3.723239899E-2
5.886806138E0,1.262592804E-2,9.600758553E-3,5.056571960E-2
5.896806138E0,4.003975540E-3,7.243871689E-3,1.268415451E-1
5.906806138E0,-6.119140424E-3,1.020705700E-2,1.265802383E-1
5.916806138E0,-4.198328406E-2,4.872870445E-2,1.374340057E-2
5.926806138E0,-1.739997603E-2,4.624247551E-2,-3.688526154E-2
5.936806138E0,2.212104946E-2,2.283167839E-2,1.160621643E-3
5.946806138E0,1.159534231E-2,3.750324249E-4,6.807231903E-2
5.956806138E0,-1.692786254E-2,6.783008575E-5,-1.337337494E-2
5.966806138E0,-4.319335520E-2,-5.130648613E-3,-1.283531189E-1
5.976806138E0,1.572363824E-2,-3.311109543E-2,-8.036041260E-2
5.986806138E0,1.353058964E-3,-4.980981350E-2,-2.015304565E-2
5.996806138E0,2.849668451E-2,-3.165674210E-2,1.216506958E-1
6.006806138E0,2.343669906E-2,-1.165533066E-2,1.580295563E-1
6.016806138E0,2.900226042E-2,-1.081347466E-3,1.701459885E-1
6.026806138E0,3.274144605E-2,-3.040790558E-3,1.411333084E-1
6.036806138E0,1.652012393E-2,-4.939675331E-3,6.629753113E-2
6.046806138E0,2.939516678E-2,1.834928989E-2,8.063316345E-3
6.056806138E0,-1.037946530E-2,8.169174194E-3,1.208782196E-2
6.066806138E0,-2.401332930E-2,2.336657047E-2,4.265403748E-2
6.076806171E0,-3.266147524E-2,2.581012249E-2,3.274536133E-2
6.086806171E0,-6.465031207E-2,5.585682392E-2,2.780437469E-2
6.096806171E0,-3.471804410E-2,9.584319592E-2,2.770709991E-2
6.106806171E0,-2.324519493E-2,1.332696676E-1,3.716468811E-2
6.116806171E0,-1.707827672E-3,1.073908806E-1,6.084156036E-2
6.126806171E0,1.212196145E-2,4.968154430E-2,3.414249420E-2
6.136806171E0,6.401391700E-3,-3.132462502E-3,2.669334412E-3
6.146806171E0,2.441610023E-2,-3.373539448E-2,2.156639099E-2
6.156806171E0,3.199081123E-2,-7.286858559E-2,-2.489089966E-3
6.166806171E0,2.639945783E-2,-1.130102873E-1,7.164001465E-3
6.176806171E0,1.017086394E-2,-1.061990261E-1,-4.532814026E-3
6.186806171E0,-8.759135380E-3,-9.322047234E-2,5.512237549E-3
6.196806171E0,6.094407290E-3,-8.226823807E-2,9.222412109E-2
6.206806171E0,4.023957998E-3,-7.613658905E-2,1.932983398E-1
6.216806171E0,-2.580401115E-2,-3.745687008E-2,1.890850067E-2
6.226806171E0,-2.963182516E-2,-4.396986961E-2,-8.873558044E-2
6.236806171E0,-3.975918517E-3,-1.789176464E-2,-1.294689178E-1
6.246806171E0,1.629866287E-2,-2.677214146E-2,-4.796600342E-2
6.256806171E0,3.080163710E-2,4.523217678E-2,6.971168518E-2
6.266806171E0,2.267418988E-2,6.654751301E-2,1.131095886E-1
6.276806171E0,6.229125708E-2,7.152438164E-2,1.227102280E-1
6.286806171E0,4.371679574E-2,7.434904575E-2,6.975746155E-2
6.296806171E0,3.668916225E-2,3.472054005E-2,3.810691833E-2
6.306806171E0,3.833984956E-2,3.068959713E-2,2.556514740E-2
6.316806171E0,2.736216411E-2,6.022775173E-2,8.244514465E-3
6.326806204E0,9.336641058E-3,6.587362289E-2,2.205848694E-2
6.336806204E0,-2.713906020E-2,4.818964005E-2,2.399063110E-2
6.346806204E0,-2.663019672E-2,5.758965015E-2,1.884460449E-2
6.356806204E0,-3.249284253E-2,7.429599762E-2,2.329444885E-2
6.366806204E0,-3.787281737E-2,6.206274033E-2,4.926395416E-2
6.386806170E0,-1.453815494E-3,6.314873695E-3,1.738548279E-2
6.396806170E0,-4.270009324E-2,-2.756249905E-2,5.037307739E-3
6.406806170E0,-6.552161183E-3,-6.482589245E-2,1.682376862E-2
6.416806170E0,-4.113499075E-3,-1.052157879E-1,4.898071289E-3
6.426806170E0,2.318542916E-3,-1.126518250E-1,2.674007416E-2
6.436806170E0,7.550086360E-3,-9.006333351E-2,8.227920532E-2
6.446806170E0,3.373348713E-2,-4.350113869E-2,1.811313629E-2
6.456806170E0,-1.460837014E-2,-1.103640795E-1,5.916881561E-2
6.466806170E0,1.794189680E-3,-9.272658825E-2,5.722713470E-2
6.476806170E0,2.835570648E-2,-8.268797398E-2,-5.490303040E-2
6.486806170E0,6.301329006E-3,-2.664029598E-2,-1.852226257E-2
6.496806170E0,1.265014987E-2,-2.554070950E-2,4.900264740E-2
6.506806170E0,2.633632720E-2,1.122021675E-2,4.945468903E-2
6.516806170E0,1.351067610E-2,3.984093666E-2,4.498577118E-2
6.526806170E0,-1.776398625E-3,4.999899864E-2,4.985523224E-2
6.536806170E0,1.929316856E-2,4.690837860E-2,-7.703781128E-3
6.546806170E0,2.666516230E-4,6.960582733E-2,-1.505947113E-2
6.556806170E0,2.615077887E-3,3.869068623E-2,1.815319061E-2
6.566806170E0,6.850450300E-3,4.659307003E-2,4.664897919E-2
6.576806203E0,6.105951965E-3,5.211973190E-2,5.359935760E-2
6.586806203E0,5.553981289E-3,3.101670742E-2,7.726955414E-2
6.596806203E0,2.613835735E-3,4.560959339E-2,4.344940186E-2
6.606806203E0,2.345613204E-3,3.099060059E-2,2.381324768E-3
6.616806203E0,-1.240856014E-2,-1.190543175E-2,4.996013641E-2
6.636806169E0,1.230977569E-2,-1.789891720E-2,2.824592590E-2
6.646806169E0,-1.127400249E-2,-5.665421486E-3,1.946449280E-3
6.656806169E0,3.062748583E-3,-3.614413738E-2,8.822727203E-2
6.666806169E0,-9.521203116E-3,-1.533043385E-2,7.169723511E-2
6.676806169E0,1.160718035E-2,2.387285233E-2,9.572029114E-3
6.686806169E0,-9.392385930E-2,-8.575510979E-2,7.428550720E-2
6.696806169E0,1.129588578E-2,6.874573231E-2,1.247415543E-1
6.706806169E0,2.403601632E-2,-1.680338383E-2,1.364698410E-1
6.716806169E0,-1.718180254E-2,-6.238901615E-2,4.753875732E-2
6.726806169E0,-1.971482765E-3,-5.378520489E-2,-6.272888184E-2
6.736806169E0,3.357961401E-2,-2.834010124E-2,-7.452011108E-3
6.746806169E0,2.309796773E-2,-2.267849445E-2,3.130912781E-2
6.756806169E0,-2.696479857E-2,4.853487015E-3,-3.762435913E-2
6.766806169E0,-7.696129382E-2,-3.482389450E-2,-1.400976181E-1
6.776806169E0,-1.073894557E-2,-2.720975876E-2,-1.058464050E-1
6.786806169E0,-8.143595420E-3,-4.395627975E-2,-9.063720703E-3
6.796806169E0,1.396163553E-2,-1.457881927E-2,1.764011383E-1
6.806806169E0,6.351992488E-2,2.377605438E-2,1.818790436E-1
6.816806169E0,4.901884496E-2,-9.076237679E-3,9.817695618E-2
6.826806169E0,8.156751096E-2,-2.003455162E-2,8.840179443E-2
6.836806169E0,5.064998940E-2,-2.158844471E-2,1.049365997E-1
6.846806169E0,2.405493893E-2,5.685210228E-3,5.923652649E-2
6.856806169E0,-2.417681366E-2,2.836096287E-2,3.271770477E-2
6.866806169E0,-4.496011138E-2,2.731513977E-2,3.256797791E-2
6.886806135E0,-5.037789792E-2,3.251481056E-2,-1.046943665E-2
6.896806135E0,-4.151742160E-2,5.072045326E-2,3.762054443E-2
6.906806135E0,-3.436506540E-2,5.504941940E-2,7.381057739E-2
6.916806135E0,1.388824079E-2,4.173386097E-2,8.832931519E-2
6.926806135E0,1.463935710E-3,5.551815033E-3,6.435108185E-2
6.936806135E0,1.037471555E-2,-3.380894661E-2,-1.240921021E-2
6.946806135E0,3.067347966E-2,-6.067228317E-2,-4.121303558E-2
6.956806135E0,3.502104431E-2,-7.903552055E-2,-9.616756439E-2
6.966806135E0,3.821663558E-4,-9.992718697E-2,-3.348731995E-2
6.976806135E0,-4.122998193E-2,-1.282485723E-1,-8.805274963E-3
6.986806135E0,-3.376523405E-2,-1.022690535E-1,-7.826805115E-3
6.996806135E0,2.259652130E-3,-9.981119633E-2,9.616756439E-2
7.006806135E0,-1.883476041E-3,-7.857024670E-2,2.551774979E-1
7.016806135E0,-1.787701622E-2,-2.819621563E-2,1.146259308E-1
7.026806135E0,-1.712444425E-2,-1.124978065E-2,-3.822517395E-2
7.036806135E0,-7.769500837E-3,2.902781963E-2,-9.778881073E-2
7.046806135E0,-5.657803267E-4,-1.384341717E-2,-4.233551025E-2
7.056806135E0,2.811163105E-2,4.553914070E-2,2.055168152E-2
7.066806135E0,2.495031618E-2,6.596481800E-2,6.418895721E-2
7.076806168E0,5.565806478E-2,5.288183689E-2,2.128219604E-2
7.086806168E0,2.551832795E-2,2.125501633E-2,9.234428406E-3
7.096806168E0,3.318988532E-2,-9.275674820E-4,1.392555237E-2
7.106806168E0,1.274758298E-2,1.646256447E-2,1.880359650E-2
7.116806168E0,1.747855730E-2,4.245913029E-2,4.783725739E-2
7.126806168E0,1.258797105E-2,5.224645138E-2,7.695198059E-2
7.136806168E0,1.217942778E-2,5.410516262E-2,7.722568512E-2
7.146806168E0,-3.875160962E-2,-2.577424049E-3,7.266998291E-4
7.156806168E0,-3.187182173E-2,1.047062874E-2,-2.545166016E-2
7.166806168E0,-1.045384631E-2,7.210373878E-3,2.265834808E-2
7.176806168E0,-4.707162082E-2,-3.365802765E-2,8.284378052E-2
7.186806168E0,-5.988061428E-3,-2.813935280E-2,1.144332886E-1
7.196806168E0,-1.045576334E-1,-1.040107012E-1,4.547214508E-2
7.206806168E0,-6.917411089E-2,-7.538592815E-2,-1.606750488E-2
7.216806168E0,-6.266221404E-3,-1.010810137E-1,-3.199958801E-2
7.226806168E0,-6.787139922E-3,-9.660685062E-2,7.355690002E-3
7.236806168E0,9.416267276E-4,-9.575724602E-2,7.561969757E-2
7.246806168E0,1.771583408E-2,-1.015919447E-1,3.862094879E-2
7.256806168E0,7.977336645E-3,-8.113896847E-2,9.260177612E-2
7.266806168E0,2.001454122E-2,-4.696345329E-2,4.114627838E-2
7.276806168E0,-1.663185656E-3,-6.409895420E-2,-1.285552979E-2
7.286806168E0,4.305914044E-3,-3.372895718E-2,1.927471161E-2
7.296806168E0,-4.354082048E-2,-2.550137043E-2,-6.150245667E-3
7.306806168E0,-2.580787987E-2,-2.266633511E-2,1.861572266E-2
7.316806168E0,2.363444865E-2,-7.763147354E-3,-9.268760681E-3
7.326806201E0,-2.589615062E-2,-2.674341202E-2,-1.805782318E-2
7.336806201E0,5.815554410E-3,-2.725362778E-3,2.341651917E-2
7.346806201E0,3.320522606E-2,-5.209565163E-3,-2.132034302E-2
7.356806201E0,2.256367914E-2,-1.016807556E-2,1.772975922E-2
7.366806201E0,1.551255584E-2,-2.531421185E-2,2.315902710E-2
7.386806167E0,6.069164723E-3,-3.118252754E-2,7.919216156E-2
7.396806167E0,-1.375786960E-4,-7.655620575E-3,3.161907196E-2
7.406806167E0,2.790748700E-2,1.416802406E-3,2.234458923E-2
7.416806167E0,-1.152706519E-2,9.114742279E-4,6.095027924E-2
7.426806167E0,-3.092046827E-3,-2.598381042E-2,-5.796432495E-3
7.436806167E0,-2.060789987E-2,-3.573310375E-2,-3.656482697E-2
7.446806167E0,-1.430288702E-2,-4.677999020E-2,-1.208972931E-2
7.456806167E0,4.619475454E-3,-2.402067184E-3,1.321573257E-1
7.466806167E0,6.066597998E-4,-8.550405502E-3,2.284870148E-1
7.476806167E0,-1.999692991E-2,-4.470908642E-2,1.546211243E-1
7.486806167E0,-3.235430643E-2,-2.456319332E-2,-1.181459427E-1
7.496806167E0,5.413929373E-2,-4.205107689E-2,-5.082321167E-2
7.506806167E0,3.695369139E-2,-5.689787865E-2,4.959106445E-3
7.516806167E0,-1.808488742E-2,-4.692363739E-2,-1.373291016E-3
7.526806167E0,-9.349867702E-3,-4.935455322E-2,-4.129600525E-2
7.536806167E0,-1.013562083E-3,-6.101727486E-2,-6.919097900E-2
7.546806167E0,1.036927104E-2,-5.227506161E-2,-2.025794983E-2
7.556806167E0,1.034596562E-2,-5.246627331E-2,9.343242645E-2
7.566806167E0,-1.021678746E-2,-5.411505699E-3,1.184415817E-1
7.576806200E0,-3.002893925E-2,-1.333534718E-2,7.124614716E-2
7.586806200E0,7.949572057E-3,-2.297556400E-2,6.446743011E-2
7.596806200E0,3.114625067E-2,-1.723814011E-2,7.900047302E-2
7.606806200E0,-1.981734112E-2,-3.577983379E-2,8.149337769E-2
7.616806200E0,-8.232332766E-3,1.007950306E-2,5.282306671E-2
7.636806166E0,-2.966806665E-2,4.645824432E-3,6.030178070E-2
7.646806166E0,-3.718845174E-2,-2.065134048E-2,-1.133728027E-2
7.656806166E0,-6.075389311E-2,-3.595209122E-2,2.244377136E-2
7.666806166E0,-1.476246491E-2,-3.088021278E-2,1.333808899E-2
7.676806166E0,-2.212188393E-2,-4.175579548E-2,1.873207092E-2
7.686806166E0,1.376409829E-2,-2.812170982E-2,9.860038757E-3
7.696806166E0,3.260686994E-3,-3.590357304E-2,4.170703888E-2
7.706806166E0,-2.259165049E-4,-4.873776436E-2,1.126194000E-2
7.716806166E0,8.708685637E-4,-6.902217865E-2,-7.258415222E-3
7.726806166E0,1.410437003E-2,-5.986762047E-2,2.222919464E-2
7.736806166E0,1.745411754E-2,-6.908619404E-2,1.593875885E-2
7.746806166E0,-5.915507674E-3,-4.950141907E-2,1.923847198E-2
7.756806166E0,-3.082767129E-3,-5.436730385E-2,5.118083954E-2
7.766806166E0,1.124642044E-2,-7.674682140E-2,1.332693100E-1
7.776806166E0,-1.606485993E-2,-5.466210842E-2,2.124404907E-2
7.786806166E0,4.800088704E-3,-7.401216030E-2,-7.107734680E-3
7.796806166E0,7.015727460E-3,-4.932570457E-2,-3.529262543E-2
7.806806166E0,-2.103606611E-2,-7.115840912E-3,-7.051849365E-2
7.816806166E0,1.201623678E-2,2.846443653E-2,-7.451248169E-2
7.826806199E0,1.401033252E-2,3.269386292E-2,-7.375240326E-2
7.836806199E0,2.447664738E-4,4.563677311E-2,1.495046616E-1
7.846806199E0,1.027794182E-2,4.438853264E-2,1.233749390E-1
7.856806199E0,1.810330153E-2,4.989266396E-3,1.327638626E-1
7.866806199E0,2.064495161E-2,3.106951714E-3,1.037025452E-1
7.886806165E0,-6.030365825E-3,1.347696781E-2,1.441287994E-2
7.896806165E0,6.168171763E-3,3.143036366E-2,1.180934906E-2
7.906806165E0,4.538372159E-3,1.883184910E-2,-9.842872620E-3
7.916806165E0,-3.063566983E-2,-1.014208794E-2,-1.945590973E-2
7.926806165E0,-3.031820059E-2,-7.303357124E-3,4.766273499E-2
7.936806165E0,-3.498202562E-2,-6.531119347E-3,5.976963043E-2
7.946806165E0,-4.321399331E-2,-1.758444309E-2,6.473064423E-2
7.956806165E0,-3.156118840E-2,-2.388048172E-2,1.702022552E-2
7.966806165E0,-5.513042212E-2,-5.166780949E-2,-1.151943207E-2
7.976806165E0,-4.207191616E-2,-4.954195023E-2,1.282787323E-2
7.986806165E0,-1.450147480E-2,-2.522468567E-2,1.095581055E-2
7.996806165E0,1.072919369E-2,-6.112337112E-2,5.211830139E-2
8.006806165E0,-2.069843560E-2,-7.081604004E-2,3.099536896E-2
8.016806165E0,-1.210501045E-2,-6.643450260E-2,1.460170746E-2
8.026806165E0,-1.350311190E-2,-5.475413799E-2,-4.168510437E-3
8.036806165E0,-1.258271188E-2,-8.573567867E-2,-3.708839417E-3
8.046806165E0,-6.669826806E-3,-5.581724644E-2,4.123687744E-3
8.056806165E0,-1.224931329E-2,-1.375675201E-3,9.671211243E-3
8.066806165E0,-3.152981400E-3,-3.882813454E-2,6.952285767E-4
8.076806198E0,-8.789382875E-3,-7.496714592E-3,1.793670654E-2
8.086806198E0,-2.219167352E-2,-5.940437317E-3,3.977489471E-2
8.096806198E0,-1.644814759E-2,2.337312698E-2,1.834201813E-2
8.106806198E0,-3.449410200E-3,1.561117172E-2,-1.526927948E-2
8.116806198E0,1.231668144E-2,2.168107033E-2,-1.784610748E-2
8.136806164E0,1.357391477E-2,2.826046944E-2,7.543373108E-2
8.146806164E0,-1.201411337E-2,3.018260002E-2,6.096553802E-2
8.156806164E0,-8.623085916E-3,4.352986813E-2,1.527690887E-2
8.166806164E0,-2.338284999E-2,2.775561810E-2,2.459812164E-2
8.176806164E0,-3.231967241E-2,3.090560436E-2,1.607809067E-1
8.186806164E0,-5.809146911E-2,1.839601994E-2,1.315345764E-1
8.196806164E0,-5.687368661E-2,2.589154243E-2,-2.965831757E-2
8.206806164E0,1.072575897E-2,4.622578621E-3,-1.645002365E-1
8.216806164E0,6.418664008E-2,-5.979681015E-2,-1.401138306E-2
8.226806164E0,3.188478947E-2,-4.726982117E-2,-1.925468445E-3
8.236806164E0,3.602832556E-2,-4.559910297E-2,-5.431079865E-2
8.246806164E0,5.011682957E-2,-7.267308235E-2,-1.067218781E-1
8.256806164E0,5.606734380E-2,-6.956219673E-2,-5.354022980E-2
8.266806164E0,1.681092381E-2,-6.705057621E-2,4.066753387E-2
8.276806164E0,-2.456234396E-2,-3.749108315E-2,1.685304642E-1
8.286806164E0,-2.122457325E-2,9.518027306E-3,1.428775787E-1
8.296806164E0,-4.279591888E-2,-2.386438847E-2,1.022014618E-1
8.306806164E0,-1.595686376E-2,-3.105974197E-2,8.022785187E-2
8.316806164E0,1.557071507E-2,1.083850861E-3,3.885650635E-2
8.326806197E0,-8.642300963E-3,1.603162289E-2,2.134323120E-2
8.336806197E0,-2.560496330E-3,5.021905899E-2,3.975105286E-2
8.346806230E0,7.844872773E-3,5.084097385E-2,1.505279541E-2
8.356806230E0,3.538819402E-2,5.862951279E-2,9.510993958E-3
8.366806230E0,1.475669444E-2,4.733729362E-2,-1.277828217E-2
8.386806196E0,1.594334096E-2,2.809739113E-2,-2.124786377E-3
8.396806196E0,1.401150227E-2,4.441714287E-2,4.045486450E-2
8.406806196E0,1.001943648E-2,3.932833672E-2,5.433177948E-2
8.416806196E0,1.311974227E-2,1.248240471E-2,1.550006866E-2
8.426806196E0,-3.081157804E-3,-1.213932037E-2,5.807876587E-4
8.436806196E0,-4.623271525E-3,-5.764007568E-2,-1.421833038E-2
8.446806196E0,1.784435660E-2,-7.316470146E-2,-4.856109619E-3
8.456806196E0,-4.401430488E-4,-5.109333992E-2,-4.778862000E-3
8.466806196E0,1.302541792E-2,-3.780853748E-2,-6.952285767E-3
8.476806196E0,3.103584796E-2,-4.392945766E-2,4.110717773E-2
8.486806196E0,1.180851460E-2,-3.430807590E-2,1.296787262E-1
8.496806196E0,-1.095847040E-2,-3.402531147E-2,3.590774536E-2
8.506806196E0,-1.799739897E-3,-2.552986145E-2,-2.936267853E-2
8.516806196E0,4.434007406E-2,-1.705884933E-4,-9.221076965E-2
8.526806196E0,4.321366549E-3,4.576456547E-2,-9.495544434E-2
8.536806196E0,1.344517246E-2,5.688893795E-2,5.094051361E-2
8.546806196E0,2.564034611E-2,6.571400166E-2,6.038951874E-2
8.556806196E0,3.552746400E-2,5.881404877E-2,8.636283875E-2
8.566806196E0,2.961173281E-2,7.090675831E-2,1.047029495E-1
8.576806229E0,6.816095114E-2,7.611370087E-2,9.155273438E-2
8.586806229E0,6.522124261E-2,6.750965118E-2,7.330131531E-2
8.596806229E0,2.800239623E-2,7.012331486E-2,4.295349121E-2
8.606806229E0,1.727875695E-2,5.365705490E-2,2.699565887E-2
8.616806229E0,9.239610285E-3,3.563773632E-2,-4.627037048E-2
8.636806195E0,-1.470430195E-2,5.872952938E-2,1.620388031E-2
8.656806161E0,-2.068952098E-2,2.230370045E-2,7.915592194E-2
8.666806161E0,1.953106374E-3,3.680908680E-2,9.274673462E-2
8.676806161E0,-2.994045615E-2,3.190708160E-2,7.517719269E-2
8.686806161E0,-2.940730006E-2,2.215993404E-2,2.887630463E-2
8.696806161E0,-1.148600131E-2,-1.116752625E-2,-1.736068726E-2
8.706806161E0,3.915421665E-3,-5.104231834E-2,1.072883606E-2
8.716806161E0,1.391753927E-2,-4.349160194E-2,5.828475952E-2
8.726806161E0,2.096190304E-2,-5.417692661E-2,7.965278625E-2
8.736806161E0,1.582753658E-2,-3.084707260E-2,5.800247192E-2
8.746806161E0,1.287423819E-2,-5.348575115E-2,5.064105988E-2
8.756806161E0,2.117423341E-2,-5.459225178E-2,1.214790344E-2
8.766806161E0,-1.415712014E-2,-4.395806789E-2,-2.399158478E-2
8.776806161E0,-1.286806539E-2,-9.249091148E-3,-3.616142273E-2
8.786806161E0,-4.230257124E-3,1.764893532E-3,6.774902344E-3
8.796806161E0,-9.329356253E-4,8.198142052E-3,6.410789490E-2
8.806806161E0,-2.877466381E-2,3.554308414E-2,1.021852493E-1
8.816806161E0,1.591726206E-2,9.727907181E-2,4.425144196E-2
8.826806161E0,1.755801588E-2,9.429013729E-2,4.577445984E-2
8.836806161E0,2.363101393E-2,6.326794624E-2,6.857681274E-2
8.846806161E0,3.150602058E-2,6.032788754E-2,7.452011108E-2
8.856806161E0,-1.608315483E-2,4.510521889E-2,2.774620056E-2
8.866806161E0,2.076207101E-2,7.567417622E-2,-4.605293274E-3
8.886806127E0,1.338153239E-2,7.065963745E-2,1.606922150E-1
8.896806127E0,-2.935377508E-2,8.732235432E-2,1.475820541E-1
8.906806127E0,-2.641819790E-2,1.262857914E-1,2.409267426E-2
8.916806127E0,-1.078464836E-2,6.553590298E-2,-1.020193100E-1
8.926806127E0,2.802143246E-2,1.304304600E-2,-4.599189758E-2
8.936806127E0,5.290726200E-3,4.488730431E-2,-6.269454956E-3
8.946806127E0,5.061302334E-3,1.349890232E-2,-7.035255432E-3
8.956806127E0,1.940615475E-4,-2.100896835E-2,-6.500625610E-2
8.966806127E0,7.636740804E-3,-1.224589348E-2,-1.178007126E-1
8.976806127E0,-8.390812203E-3,2.957582474E-4,2.115154266E-2
8.986806127E0,1.232212316E-2,-2.238941193E-2,1.051425934E-1
8.996806127E0,-1.462400705E-2,-2.693295479E-3,1.243820190E-1
9.006806127E0,-1.872826181E-2,7.318735123E-3,4.508018494E-2
9.016806127E0,1.074588671E-2,-1.105356216E-2,8.997058868E-2
9.026806127E0,1.007094979E-3,-2.094280720E-2,1.011753082E-1
9.036806127E0,1.941547915E-2,-4.203557968E-3,8.608913422E-2
9.046806127E0,3.279785439E-2,-1.336276531E-2,1.045894623E-1
9.056806127E0,5.184892565E-3,9.296894073E-3,1.112232208E-1
9.066806127E0,2.519183420E-2,4.646432400E-2,8.435821533E-2
9.076806160E0,3.359893709E-2,1.013909578E-1,2.224922180E-3
9.086806160E0,1.088372432E-2,9.268307686E-2,-2.983093262E-2
9.096806160E0,3.110693954E-2,7.672345638E-2,5.144119263E-3
9.106806160E0,-1.846837066E-2,8.309447765E-2,6.719589233E-3
9.116806160E0,2.188767865E-2,4.417276382E-2,4.663467407E-2
9.126806160E0,-5.925517529E-3,-1.238667965E-2,6.761741638E-2
9.136806160E0,8.993968368E-4,-1.939475536E-2,2.180576324E-2
9.146806160E0,1.280756947E-2,-4.008531570E-2,1.679611206E-2
9.156806160E0,2.210365981E-2,-4.586148262E-2,-9.682655334E-3
9.166806160E0,2.589442953E-2,-1.011078358E-1,7.048606873E-3
9.176806160E0,3.206318244E-2,-6.155669689E-2,3.116798401E-2
9.186806160E0,2.335150354E-2,-2.616429329E-2,5.537796021E-2
9.196806160E0,2.817494236E-2,8.590221405E-3,1.920232773E-1
9.206806160E0,-8.206176572E-3,2.948915958E-2,1.584081650E-1
9.216806160E0,-2.404061705E-2,4.758799076E-2,-1.485481262E-1
9.226806160E0,-3.785301745E-2,1.870262623E-2,-1.133460999E-1
9.236806160E0,-6.089183502E-3,6.086421013E-2,-3.720760345E-2
9.246806160E0,-1.232752949E-2,4.178297520E-2,3.907585144E-2
9.256806160E0,-3.362005576E-2,7.327997684E-2,7.230567932E-2
9.266806160E0,-1.098828018E-2,6.341075897E-2,3.361701965E-2
9.276806160E0,2.839231119E-2,7.190203667E-2,4.269981384E-2
9.286806160E0,2.138984948E-2,5.994176865E-2,8.032989502E-2
9.296806160E0,3.946209699E-2,2.545630932E-2,7.712173462E-2
9.306806160E0,3.468713909E-2,3.905439377E-2,7.873153687E-2
9.316806160E0,-4.091361072E-3,2.865803242E-2,6.118488312E-2
9.326806193E0,-6.769750267E-3,2.124822140E-2,2.935886383E-2
9.336806193E0,-1.089512254E-3,1.694321632E-2,5.030918121E-2
9.346806193E0,-2.312993258E-2,1.369464397E-2,2.112770081E-2
9.356806193E0,-1.224687397E-1,6.326973438E-2,6.858348846E-2
9.366806193E0,-1.758033596E-2,-2.151536942E-2,4.178047180E-2
9.386806159E0,-4.744746909E-2,-8.998036385E-2,7.477378845E-2
9.396806159E0,4.625179246E-2,-4.897618294E-2,3.411483765E-2
9.406806159E0,7.680135220E-2,-1.047408581E-2,2.456569672E-2
9.416806159E0,-3.336224705E-2,3.621709347E-2,-1.869392395E-2
9.426806159E0,7.815532386E-3,-5.111598969E-2,-3.593826294E-2
9.436806159E0,2.808861434E-2,-9.299182892E-2,5.009269714E-2
9.446806159E0,7.185699046E-2,-5.929172039E-2,4.805278778E-2
9.456806159E0,4.724285007E-2,-1.005363464E-2,3.420162201E-2
9.466806159E0,-9.535561316E-3,-3.129839897E-2,1.541805267E-2
9.476806159E0,4.922960326E-2,1.552355289E-2,-5.383110046E-2
9.486806159E0,3.097538650E-2,-5.636930466E-3,6.076812744E-3
9.496806159E0,2.296012826E-2,-3.318309784E-3,6.831550598E-2
9.506806159E0,2.651011385E-2,1.788806915E-2,5.390453339E-2
9.516806159E0,-3.944353666E-3,5.291533470E-2,5.617713928E-2
9.526806159E0,2.413447015E-2,5.846595764E-2,3.201007843E-2
9.536806159E0,2.328640223E-2,3.720915318E-2,3.172206879E-2
9.546806159E0,2.027081698E-2,3.682041168E-2,1.697540283E-2
9.556806159E0,7.926153950E-3,3.072130680E-2,-1.226234436E-2
9.566806159E0,-1.925378665E-2,1.948177814E-2,-3.196907043E-2
9.576806192E0,-2.257368714E-2,3.046929836E-2,4.658222198E-2
9.586806192E0,-1.620532200E-2,6.133520603E-2,6.298160553E-2
9.596806192E0,-2.387019247E-2,7.762551308E-2,8.414173126E-2
9.606806192E0,-9.861541912E-3,5.219173431E-2,5.488777161E-2
9.616806192E0,-2.483180538E-2,2.631497383E-2,2.078628540E-2
9.636806158E0,-2.838073298E-3,-5.270361900E-3,3.173065186E-2
9.646806158E0,-2.039397135E-3,2.113425732E-2,5.775547028E-2
9.656806158E0,5.170092359E-2,-1.463687420E-2,1.364631653E-1
9.666806158E0,3.782397136E-2,-1.453208923E-2,1.433401108E-1
9.676806158E0,8.852574974E-4,-1.748859882E-2,5.436229706E-2
9.686806158E0,-1.680394635E-2,-2.539050579E-2,-5.618190765E-2
9.696806158E0,-2.848086879E-4,-3.660321236E-2,-2.527236938E-2
9.706806158E0,-1.388345473E-2,-5.524110794E-2,-8.446693420E-3
9.716806158E0,-3.734368086E-2,-3.210723400E-2,8.753108978E-2
9.726806158E0,-5.864654109E-2,-9.150743484E-3,-1.445198059E-1
9.736806158E0,-4.631933756E-3,-5.037426949E-2,-1.275138855E-1
9.746806158E0,-2.860065550E-3,-6.018090248E-2,-2.874660492E-2
9.756806158E0,3.344707191E-2,-3.349304199E-3,1.373262405E-1
9.766806158E0,3.074428253E-2,3.005266190E-2,1.762590408E-1
9.776806158E0,3.161481768E-2,4.708313942E-2,1.092576981E-1
9.786806158E0,2.865307964E-2,2.444386482E-2,6.808853149E-2
9.796806158E0,7.563574612E-2,9.542703629E-3,6.498241425E-2
9.806806158E0,5.569871981E-3,6.316423416E-3,7.381153107E-2
9.816806158E0,2.978759818E-3,3.750967979E-2,5.164051056E-2
9.826806191E0,-4.011719953E-3,3.111875057E-2,5.829620361E-2
9.836806191E0,-3.706698120E-2,3.492701054E-2,-9.183883667E-3
9.846806191E0,-4.166512191E-2,4.161119461E-2,-9.563446045E-3
9.856806191E0,-1.633556001E-2,4.672741890E-2,1.649951935E-2
9.866806191E0,-2.001194656E-2,5.072045326E-2,1.160621643E-2
9.886806157E0,1.520048827E-3,3.806233406E-2,4.982089996E-2
9.896806157E0,5.333448201E-2,-6.195783615E-3,8.965492249E-3
9.906806157E0,3.459230065E-2,-5.968117714E-2,-7.900238037E-3
9.916806157E0,2.912785672E-2,-6.649422646E-2,1.726150513E-3
9.926806157E0,6.376367062E-3,-9.866797924E-2,1.147937775E-2
9.936806157E0,-4.065605812E-3,-1.225068569E-1,4.532623291E-2
9.946806157E0,-5.147263408E-3,-1.186335087E-1,4.583644867E-2
9.956806157E0,-2.699504606E-3,-5.025422573E-2,4.633140564E-2
9.966806157E0,-7.781082299E-3,-3.029227257E-2,1.305551529E-1
9.976806157E0,-6.792414933E-2,4.768013954E-3,2.781295776E-2
9.986806157E0,-3.448131308E-2,2.407658100E-2,-7.272243500E-2
9.996806157E0,-6.539704278E-3,1.263070107E-2,-7.983875275E-2
1.000680616E1,1.226882264E-2,5.054688454E-2,4.013347626E-2
1.001680616E1,2.605904639E-2,8.115911484E-2,1.050252914E-1
1.002680616E1,3.187602386E-2,7.115066051E-2,1.049671173E-1
1.003680616E1,5.138985068E-2,3.779196739E-2,8.551597595E-2
1.004680616E1,3.859842941E-2,3.241121769E-2,1.066684723E-1
1.005680616E1,2.471004240E-2,2.922081947E-2,9.427833557E-2
1.006680616E1,3.173720092E-2,3.780412674E-2,3.158569336E-2
1.007680619E1,-1.384093147E-2,3.951811790E-2,-2.148628235E-2
1.008680619E1,-3.247691318E-2,8.586645126E-3,-7.405281067E-3
1.009680619E1,-2.415865473E-2,1.089584827E-2,4.525852203E-2
1.010680619E1,-2.704444155E-2,2.692115307E-2,5.026531219E-2
1.011680619E1,-3.404650092E-2,3.403306007E-2,8.648300171E-2
1.013680616E1,-3.165500239E-2,2.024090290E-2,1.743793488E-2
1.014680616E1,-1.594608650E-2,6.660938263E-3,1.753807068E-2
1.015680616E1,-2.151347324E-2,-4.258346558E-2,4.879665375E-2
1.016680616E1,-1.223313063E-2,-1.054071188E-1,3.466796875E-2
1.017680616E1,2.532758936E-2,-8.780598640E-2,6.363868713E-3
1.018680616E1,2.265314572E-3,-1.076712608E-1,-1.943206787E-2
1.019680616E1,1.959437877E-2,-1.091597080E-1,-1.914978027E-3
1.020680616E1,2.205525339E-2,-1.236447096E-1,2.776145935E-2
1.021680616E1,1.016622316E-2,-1.248204708E-1,4.325962067E-2
1.022680616E1,6.262933835E-3,-9.182727337E-2,1.391410828E-3
1.023680616E1,1.213398017E-2,-7.829475403E-2,1.907348633E-4
1.024680616E1,9.761149995E-3,-6.043255329E-2,-1.064300537E-3
1.025680616E1,-9.544329718E-3,-1.674318314E-2,5.747222900E-2
1.026680616E1,9.154306725E-3,2.795922756E-2,7.751655579E-2
1.027680616E1,-1.316145994E-2,2.031898499E-2,3.742027283E-2
1.028680616E1,-9.318375960E-4,3.288781643E-2,4.502201080E-2
1.029680616E1,2.310454473E-2,2.268838882E-2,9.357452393E-3
1.030680616E1,1.189863682E-2,4.628348351E-2,3.358650208E-2
1.031680616E1,1.319927163E-2,4.528081417E-2,-2.132415771E-3
1.032680619E1,1.684033126E-2,2.205705643E-2,9.939193726E-3
1.033680619E1,2.483034320E-2,2.066195011E-2,3.880977631E-2
1.034680619E1,-8.419014513E-3,3.147327900E-2,4.616546631E-2
1.035680619E1,-1.758566871E-2,2.565324306E-2,3.917503357E-2
1.036680619E1,-2.169913426E-2,1.039111614E-2,-1.315116882E-3
1.038680616E1,-4.706650600E-2,-4.435169697E-2,4.197120667E-3
1.039680616E1,-1.497804467E-2,-3.813254833E-2,1.910591125E-2
1.040680616E1,-1.162372902E-2,-2.924597263E-2,6.996822357E-2
1.041680616E1,2.084624209E-2,-5.887424946E-2,6.334114075E-2
1.042680616E1,-1.075056288E-2,-3.322672844E-2,2.562141418E-2
1.043680616E1,2.731353790E-2,-5.597996712E-2,5.965614319E-2
1.044680616E1,-2.221420780E-2,-4.713392258E-2,3.629875183E-2
1.045680616E1,-3.391659260E-2,-5.500864983E-2,-1.099205017E-2
1.046680616E1,-3.991678357E-2,-5.226767063E-2,-1.503562927E-2
1.047680616E1,5.813106429E-3,-7.485675812E-2,6.487083435E-2
1.048680616E1,-1.347023342E-2,-6.606304646E-2,1.352405548E-1
1.049680616E1,-5.321498215E-2,-3.928005695E-2,1.869583130E-2
1.050680616E1,-4.075144231E-2,-4.046845436E-2,-1.172428131E-1
1.051680616E1,1.063610613E-2,-4.107475281E-2,-1.501417160E-1
1.052680616E1,6.026559696E-2,-7.036781311E-2,-4.381275177E-2
1.053680616E1,-5.018448457E-3,-4.223895073E-2,6.766223907E-2
1.054680616E1,1.550345682E-2,2.384185791E-4,-4.112243652E-2
1.055680616E1,6.747687608E-2,-5.667841434E-2,-8.783721924E-2
1.056680616E1,4.612477124E-2,-4.587733746E-2,9.208679199E-3
1.057680619E1,-1.643865369E-2,-1.354980469E-2,1.182289124E-1
1.058680619E1,7.918957621E-3,-1.650452614E-2,8.333301544E-2
1.059680619E1,-5.799992010E-3,-1.422226429E-2,8.644962311E-2
1.060680619E1,-1.021035574E-2,-1.636302471E-2,1.036186218E-1
1.061680619E1,-1.973134093E-2,-3.187870979E-2,5.832195282E-2
1.063680615E1,-3.589395434E-2,-1.750147343E-2,5.630111694E-2
1.064680615E1,-3.274834901E-2,1.157045364E-3,4.702091217E-2
1.065680615E1,-9.493768215E-3,5.763888359E-3,3.300380707E-2
1.066680615E1,-2.344385721E-2,2.252197266E-2,3.338336945E-2
1.067680615E1,-2.988660522E-2,2.248859406E-2,3.376102448E-2
1.068680615E1,-1.678801700E-2,1.992464066E-2,2.693748474E-2
1.069680615E1,-2.039776742E-2,-2.565121651E-2,2.012920380E-2
1.070680615E1,-2.467295900E-2,-2.271521091E-2,1.820659637E-2
1.071680615E1,-7.921732962E-3,-4.815554619E-2,3.070354462E-2
1.072680615E1,-8.187800646E-3,-7.503736019E-2,4.814052582E-2
1.073680615E1,-5.906194448E-3,-8.695745468E-2,1.300144196E-2
1.074680615E1,-2.089468390E-2,-1.119228601E-1,-3.629112244E-2
1.075680615E1,4.555031657E-3,-9.014737606E-2,-6.374359131E-3
1.076680615E1,-3.999661654E-3,-1.061857939E-1,1.165485382E-2
1.077680615E1,6.742168218E-3,-1.007828712E-1,7.277011871E-2
1.078680615E1,-1.453630626E-3,-8.427453041E-2,1.433286667E-1
1.079680615E1,1.905687153E-3,-6.698095798E-2,9.631347656E-2
1.080680615E1,-1.660538837E-2,-6.104278564E-2,-5.633449554E-2
1.081680615E1,-8.871212602E-3,-4.531109333E-2,-7.487106323E-2
1.082680619E1,5.925226957E-3,-4.228866100E-2,-4.525279999E-2
1.083680619E1,9.787674993E-3,-3.284966946E-2,1.097965240E-2
1.084680619E1,1.458579302E-2,3.121018410E-3,3.613090515E-2
1.085680619E1,3.366342187E-2,2.506721020E-2,2.982139587E-2
1.086680619E1,4.902757704E-2,1.868164539E-2,3.514671326E-2
1.088680615E1,1.851034909E-2,3.881132603E-2,6.203365326E-2
1.089680615E1,1.087247208E-2,3.496325016E-2,5.021572113E-2
1.090680615E1,1.355009526E-2,4.023468494E-2,4.072093964E-2
1.091680615E1,-2.445098758E-2,6.858110428E-3,1.680469513E-2
1.092680615E1,-2.073752135E-2,2.732634544E-3,2.650070190E-2
1.093680615E1,-5.229169130E-2,-2.947747707E-2,7.222175598E-2
1.094680615E1,-4.492065310E-2,-1.514959335E-2,1.085462570E-1
1.095680615E1,-6.169855595E-2,-8.441925049E-3,1.040964127E-1
1.096680615E1,-4.173690826E-2,-2.884054184E-2,1.138887405E-1
1.097680615E1,-7.376527786E-2,-5.836236477E-2,3.039169312E-2
1.098680619E1,-7.149542868E-2,-6.559312344E-2,-1.706027985E-2
1.099680619E1,-5.913367867E-2,-4.275250435E-2,-1.639461517E-2
1.100680619E1,-3.399403393E-2,-4.227602482E-2,1.567268372E-2
1.101680619E1,-4.730141908E-2,-3.855681419E-2,5.507278442E-2
1.102680619E1,-2.813677490E-2,-4.068076611E-2,3.203964233E-2
1.103680619E1,-1.693323255E-2,-4.904174805E-2,1.354598999E-2
1.104680619E1,-1.359020174E-2,-4.612684250E-2,1.408100128E-2
1.105680619E1,5.855448544E-3,-8.799648285E-2,3.388500214E-2
1.106680619E1,6.124332547E-3,-9.553158283E-2,2.749538422E-2
1.107680622E1,-2.729725093E-2,-8.086669445E-2,6.431198120E-2
1.108680622E1,-7.814392447E-3,-6.869006157E-2,5.323791504E-2
1.109680622E1,-7.861755788E-3,-5.449843407E-2,-2.494239807E-2
1.110680622E1,-8.115798235E-3,-4.050624371E-2,-1.696586609E-2
1.111680622E1,-1.108436286E-2,-5.113124847E-3,5.588531494E-4
1.113680619E1,-1.526421309E-2,2.409601212E-2,1.630115509E-2
1.114680618E1,-1.947306097E-2,1.448023319E-2,1.675605774E-2
1.115680618E1,3.117471933E-3,2.653014660E-2,4.596805573E-2
1.116680618E1,2.104373276E-2,3.303158283E-2,1.758956909E-2
1.117680618E1,5.074000359E-2,4.366123676E-2,-3.005981445E-2
1.118680618E1,4.850720614E-2,2.776479721E-2,-3.705215454E-2
1.119680619E1,2.714891732E-2,1.450288296E-2,3.497123718E-2
1.120680619E1,-3.993749619E-3,-1.236319542E-3,4.948043823E-2
1.121680619E1,-5.030614138E-2,-3.389537334E-2,1.845836639E-2
1.122680619E1,-7.604278624E-2,-1.338887215E-2,-1.963615417E-2
1.123680618E1,-5.631840229E-2,-5.448138714E-2,3.339862823E-2
1.124680618E1,-4.702740908E-2,-5.137062073E-2,1.321411133E-1
1.125680618E1,-2.647934854E-2,-4.617834091E-2,1.901540756E-1
1.126680618E1,-5.129420757E-2,-2.073001862E-2,5.879974365E-2
1.127680618E1,-1.782222092E-2,-2.516055107E-2,-1.349916458E-1
1.129680615E1,4.943024367E-2,-4.564404488E-2,-5.957031250E-2
1.130680615E1,3.419971466E-2,-2.845776081E-2,-6.100749969E-2
1.131680615E1,9.016185999E-3,-3.282117844E-2,-5.770206451E-2
1.132680618E1,7.150962949E-3,-6.787645817E-2,-1.022100449E-1
1.133680618E1,1.292158663E-2,-5.373752117E-2,-1.957798004E-2
1.134680618E1,-1.162548363E-2,-6.085693836E-2,7.988452911E-2
1.135680618E1,-2.578997612E-2,-2.996838093E-2,9.312152863E-2
1.136680618E1,-3.220511973E-2,-2.994859219E-2,3.655052185E-2
1.138680615E1,1.653179526E-3,-1.325762272E-2,5.896568298E-2
1.139680615E1,-2.574226260E-2,-5.164027214E-3,6.869220734E-2
1.140680615E1,-1.954875886E-2,-1.257896423E-2,3.750801086E-2
1.141680615E1,-1.532243192E-2,1.025557518E-3,2.778339386E-2
1.142680615E1,-3.175926208E-2,-7.639408112E-3,2.512264252E-2
1.143680615E1,-9.001120925E-3,5.209565163E-3,4.880714417E-2
1.144680615E1,-1.746901870E-2,-2.323579788E-2,-4.493236542E-2
1.145680615E1,-4.946787655E-2,-2.178645134E-2,-5.465602875E-2
1.146680615E1,-2.337722480E-2,-3.063070774E-2,-2.336120605E-2
1.147680615E1,2.794891596E-3,-1.384115219E-2,-3.726005554E-3
1.148680615E1,-2.689692378E-2,-2.828931808E-2,8.692741394E-3
1.149680615E1,-9.055346251E-3,-1.666581631E-2,4.021072388E-2
1.150680615E1,-1.099814475E-2,-2.015578747E-2,1.890945435E-2
1.151680615E1,-1.248821616E-3,1.899123192E-3,1.182270050E-2
1.152680615E1,2.486285567E-2,-2.929687500E-3,1.659870148E-2
1.153680615E1,-7.310479879E-3,-1.737356186E-2,-2.892208099E-2
1.154680615E1,2.352319658E-2,-4.160106182E-2,-2.419185638E-2
1.155680615E1,4.259140790E-2,-4.158759117E-2,1.194610596E-1
1.156680615E1,3.305214643E-2,-1.596689224E-2,1.145000458E-1
1.157680618E1,1.484064758E-2,-2.640259266E-2,-2.742004395E-2
1.158680618E1,5.645528436E-3,-2.569377422E-2,-3.063201904E-2
1.159680618E1,1.102551818E-3,-1.685214043E-2,-1.691150665E-2
1.160680618E1,-7.409170270E-3,2.242052555E-2,6.711959839E-3
1.161680618E1,7.038518786E-3,4.501020908E-2,2.797698975E-2
1.163680615E1,4.379493743E-2,4.714035988E-2,2.656555176E-2
1.164680615E1,4.889570177E-2,4.704082012E-2,4.241085052E-2
1.165680615E1,5.100427568E-2,6.561076641E-2,6.055736542E-2
1.166680615E1,6.031258404E-2,3.833568096E-2,8.103752136E-2
1.167680615E1,-5.697607994E-4,7.801234722E-2,5.600738525E-2
1.168680615E1,9.554952383E-3,4.961609840E-2,-2.906894684E-2
1.169680615E1,-1.528817415E-2,4.608952999E-2,-2.298259735E-2
1.170680615E1,-6.243437529E-4,6.097471714E-2,1.214790344E-2
1.171680615E1,-4.644751549E-3,6.631457806E-2,4.250240326E-2
1.172680615E1,-6.079390645E-3,4.889297485E-2,4.152393341E-2
1.173680615E1,-9.444698691E-3,2.773404121E-2,1.398468018E-2
1.174680615E1,2.602474391E-2,2.338039875E-2,2.476978302E-2
1.175680615E1,1.336377859E-2,9.390473366E-3,5.230712891E-2
1.176680615E1,-4.535386711E-2,-9.052276611E-3,4.638195038E-2
1.177680615E1,-2.440539002E-2,3.056406975E-3,2.600479126E-2
1.178680615E1,-3.852210939E-2,6.199240685E-3,5.123806000E-2
1.179680615E1,-1.955869049E-2,-3.099381924E-2,6.456089020E-2
1.180680615E1,-3.873918951E-2,-3.640115261E-2,5.166721344E-2
1.181680615E1,3.015256673E-2,-2.965009212E-2,-1.865863800E-2
1.182680618E1,2.386734635E-2,-5.356502533E-2,-7.513046265E-3
1.183680618E1,5.345523357E-3,-1.374733448E-2,-3.300666809E-3
1.184680618E1,1.365377009E-2,1.491880417E-2,1.063537598E-2
1.185680618E1,2.483860403E-2,2.956509590E-2,6.773090363E-2
1.186680618E1,9.020052850E-3,4.814124107E-2,8.397483826E-2
1.188680615E1,2.671513706E-2,6.066870689E-2,5.404472351E-3
1.189680615E1,2.261040360E-2,6.585192680E-2,1.860618591E-3
1.190680615E1,6.209792569E-2,7.362234592E-2,3.187847137E-2
1.191680615E1,4.778028280E-2,8.548212051E-2,1.024761200E-1
1.192680615E1,4.481602460E-2,7.671082020E-2,1.010055542E-1
1.193680615E1,3.667085990E-2,3.585267067E-2,1.017770767E-1
1.194680615E1,3.772409260E-2,2.329897881E-2,1.150798798E-2
1.195680615E1,-1.175652444E-2,4.953479767E-2,4.821872711E-2
1.196680615E1,-2.839369327E-2,3.828275204E-2,-8.307456970E-3
1.197680615E1,-2.468011528E-2,2.666187286E-2,1.691150665E-2
1.198680615E1,-2.593159676E-3,5.780279636E-2,4.487037659E-2
1.199680615E1,1.014219224E-2,5.322396755E-2,1.422939301E-1
1.200680615E1,1.792640984E-2,3.559494019E-2,1.820898056E-1
1.201680615E1,-8.027240634E-3,6.213915348E-2,2.296257019E-2
1.202680615E1,-1.197137684E-2,7.072508335E-2,-6.212329865E-2
1.203680615E1,2.576335147E-2,3.898918629E-2,-2.742385864E-2
1.204680615E1,1.851787046E-2,-5.296587944E-3,4.347610474E-2
1.205680615E1,4.959693924E-2,1.966679096E-2,-2.174949646E-2
1.206680615E1,4.841613397E-2,3.793597221E-3,-4.869270325E-2
1.207680618E1,-6.381876767E-3,-2.149951458E-2,-1.235017776E-1
1.208680618E1,-3.218267858E-2,-5.050086975E-2,-1.047687531E-1
1.209680618E1,3.856905550E-2,4.073143005E-3,5.556106567E-2
1.210680618E1,1.150806621E-2,4.791820049E-2,9.876728058E-2
1.211680618E1,-2.007343620E-2,4.019379616E-2,1.154394150E-1
1.213680615E1,3.511073440E-2,5.679678917E-2,1.071252823E-1
1.214680615E1,1.875990257E-2,5.756020546E-2,8.459091187E-2
1.215680615E1,2.867543697E-2,6.219136715E-2,1.002302170E-1
1.216680615E1,1.669917256E-2,7.822310925E-2,6.311607361E-2
1.217680615E1,-2.339556813E-4,1.079863310E-1,1.972198486E-3
1.218680615E1,9.671535343E-3,8.004140854E-2,5.093383789E-2
1.219680615E1,-2.116711065E-2,6.297791004E-2,4.024219513E-2
1.220680615E1,-1.997964829E-2,4.727077484E-2,4.652023315E-2
1.221680615E1,-1.055138558E-2,6.135463715E-2,1.032381058E-1
1.222680615E1,-5.398061126E-3,5.686640739E-2,1.313161850E-1
1.223680615E1,1.167301089E-2,5.964159966E-2,6.842803955E-2
1.224680615E1,-9.355381131E-3,2.605009079E-2,3.660202026E-2
1.225680615E1,-1.405117661E-2,-4.775166512E-2,5.991458893E-2
1.226680615E1,1.983600482E-2,-3.119957447E-2,3.799438477E-2
1.227680615E1,2.338551730E-2,-3.201377392E-2,2.351760864E-2
1.228680615E1,2.141662687E-2,-3.758406639E-2,-4.123687744E-2
1.229680615E1,1.304740459E-2,-4.002368450E-2,-2.209568024E-2
1.230680615E1,-1.334306225E-2,-4.443991184E-2,5.216693878E-2
1.231680615E1,1.546696201E-2,-3.418576717E-2,1.480216980E-1
1.232680618E1,4.237144440E-2,-1.741611958E-2,9.152412415E-3
1.233680618E1,4.886381328E-3,7.876038551E-3,-6.282997131E-2
1.234680618E1,-3.841333091E-3,-1.258027554E-2,-1.992702484E-2
1.235680618E1,4.719063640E-3,1.346766949E-2,-3.212928772E-3
1.236680618E1,1.203125343E-2,3.474104404E-2,6.618022919E-2
1.238680615E1,2.529200912E-2,5.522406101E-2,6.090068817E-2
1.239680615E1,4.420289770E-2,3.678548336E-2,6.510639191E-2
1.240680615E1,6.418763101E-2,3.870785236E-2,6.435108185E-2
1.241680615E1,2.516958490E-2,3.079080582E-2,4.200935364E-2
1.242680615E1,1.419496816E-2,3.058981895E-2,5.086994171E-2
1.243680615E1,1.505965926E-2,9.579777718E-3,5.983829498E-2
1.244680615E1,-8.779522032E-4,4.210019112E-2,4.498672485E-2
1.245680615E1,-1.567421108E-2,7.245004177E-2,3.735542297E-2
1.246680615E1,-1.736304164E-2,6.594288349E-2,8.048057556E-3
1.247680615E1,-3.770440444E-2,5.933141708E-2,2.421760559E-2
1.248680615E1,-2.896952629E-2,6.244909763E-2,2.365207672E-2
1.249680615E1,-1.476663072E-2,2.967905998E-2,5.421829224E-2
1.250680615E1,-2.637479827E-2,-5.251407623E-3,7.524204254E-2
1.251680615E1,-9.121901356E-3,-1.036298275E-2,6.529235840E-2
1.252680615E1,1.712721772E-3,-1.725172997E-2,3.388118744E-2
1.253680615E1,2.802562900E-3,-2.820634842E-2,2.172279358E-2
1.254680615E1,2.482618019E-2,-4.302263260E-2,3.602695465E-2
1.255680615E1,1.982749440E-2,-6.437659264E-2,2.887058258E-2
1.256680615E1,1.902381331E-2,-5.641233921E-2,2.897644043E-2
1.257680618E1,1.567943394E-2,-5.049216747E-2,1.955413818E-2
1.258680618E1,1.958893612E-2,-2.558982372E-2,1.250076294E-2
1.259680618E1,2.807732671E-2,-1.278758049E-2,1.500797272E-2
1.260680618E1,4.814341199E-3,-1.187765598E-2,2.949619293E-2
1.261680618E1,7.740019355E-3,5.597710609E-3,4.156303406E-2
1.263680615E1,1.172360964E-2,2.030932903E-2,5.836772919E-2
1.264680615E1,3.646430094E-3,5.429029465E-3,8.223819733E-2
1.265680615E1,-1.194737293E-2,3.584790230E-2,5.819892883E-2
1.266680614E1,-2.070628479E-2,4.149723053E-2,2.925682068E-2
1.267680614E1,2.104790183E-3,7.706642151E-3,-9.416580200E-3
1.268680614E1,-2.296677791E-2,-8.905768394E-3,4.640579224E-3
1.269680614E1,5.901332945E-3,3.068149090E-2,1.885414124E-2
1.270680615E1,3.820285201E-2,4.651284218E-2,-2.676296234E-2
1.271680615E1,5.182188470E-3,3.365302086E-2,3.057575226E-2
1.272680615E1,2.884871326E-3,3.767728806E-2,1.371288300E-2
1.273680615E1,5.195888225E-3,1.774549484E-2,2.797222137E-2
1.274680614E1,7.358546369E-3,1.679766178E-2,9.248638153E-2
1.275680614E1,6.423165090E-3,1.585805416E-2,8.278179169E-2
1.276680614E1,-9.228139184E-3,-1.670563221E-2,8.498001099E-2
1.277680614E1,-1.502853259E-2,1.936161518E-2,2.242565155E-2
1.278680615E1,1.363981864E-3,-9.752154350E-3,1.247310638E-2
1.279680615E1,-6.029306911E-3,-3.091692924E-2,5.017280579E-3
1.280680615E1,2.797887195E-3,-5.747199059E-3,-2.865886688E-2
1.281680615E1,-5.286270753E-4,-3.518772125E-2,9.574413300E-2
1.282680618E1,7.788279094E-3,-2.338230610E-2,1.436052322E-1
1.283680618E1,6.499115843E-3,2.182126045E-3,9.082889557E-2
1.284680618E1,-2.488777414E-2,-1.850962639E-3,-2.431297302E-2
1.285680618E1,7.338927593E-3,-1.210308075E-2,-1.722145081E-2
1.286680618E1,1.672700793E-2,-2.317190170E-2,1.881217957E-2
1.288680614E1,-1.592822373E-4,-1.664197445E-2,-6.649684906E-2
1.289680614E1,-1.862440258E-2,-3.661060333E-2,-9.229278564E-2
1.290680614E1,-2.947342116E-3,-4.634308815E-2,-3.898906708E-2
1.291680614E1,2.456708997E-2,-1.924192905E-2,7.429695129E-2
1.292680614E1,-8.578041568E-3,-2.061867714E-2,9.870719910E-2
1.293680614E1,1.894260198E-2,3.971576691E-3,1.179494858E-1
1.294680614E1,9.426804259E-3,-5.049347878E-2,1.057329178E-1
1.295680614E1,3.236892074E-2,-3.872334957E-2,7.425117493E-2
1.296680614E1,1.709299162E-2,-2.882158756E-2,4.044914246E-2
1.297680614E1,-3.100194503E-3,3.464531898E-2,6.423091888E-2
1.298680614E1,8.688187227E-3,2.375113964E-2,2.334976196E-2
1.299680614E1,2.031626366E-2,6.781935692E-2,1.118373871E-2
1.300680614E1,-1.204542536E-2,7.532048225E-2,5.160331726E-2
1.301680614E1,-2.979509160E-2,7.739889622E-2,4.884052277E-2
1.302680614E1,-3.698226437E-2,5.532824993E-2,2.450275421E-2
1.303680614E1,-1.463218965E-2,4.055297375E-2,4.088306427E-2
1.304680614E1,-6.567067001E-3,3.056704998E-2,-4.329299927E-2
1.305680614E1,2.097929455E-2,-5.286693573E-3,-3.403186798E-2
1.306680614E1,1.526285335E-2,-2.515554428E-2,-3.652095795E-2
1.307680618E1,2.608136646E-2,-7.452154160E-2,-5.274772644E-3
1.308680618E1,1.667885669E-2,-7.938647270E-2,2.376842499E-2
1.309680618E1,3.764755651E-2,-6.880474091E-2,3.859233856E-2
1.310680618E1,5.283164792E-3,-6.981170177E-2,3.192329407E-2
1.311680618E1,-4.145429470E-3,-4.503226280E-2,4.193878174E-2
1.313680614E1,1.348747872E-3,-4.529535770E-2,1.236352921E-1
1.314680618E1,-2.943338081E-2,-4.157960415E-2,6.175041199E-3
1.315680618E1,-2.940729633E-2,-4.957580566E-2,-1.280107498E-1
1.316680618E1,-3.749138117E-2,1.575946808E-4,-5.832862854E-2
1.317680618E1,1.715067588E-2,1.553130150E-2,5.705642700E-2
1.318680618E1,2.148074284E-2,1.605498791E-2,8.618450165E-2
1.319680618E1,3.672591597E-2,4.578328133E-2,5.998420715E-2
1.320680618E1,6.491436809E-2,5.688869953E-2,5.507659912E-2
1.321680618E1,4.369867593E-2,4.974019527E-2,4.039001465E-2
1.322680618E1,4.080295190E-2,5.136036873E-2,3.517150879E-2
1.323680618E1,1.775218546E-2,2.655255795E-2,8.022308350E-2
1.324680618E1,-1.496507600E-2,5.490911007E-2,7.506465912E-2
1.325680618E1,-2.275083400E-2,6.896686554E-2,7.470417023E-2
1.326680618E1,-9.879078716E-3,6.586778164E-2,6.471061707E-2
1.327680618E1,-4.679843038E-2,4.570817947E-2,4.749488831E-2
1.328680618E1,-5.402180552E-2,4.245984554E-2,3.962516785E-3
1.329680618E1,-4.850187153E-2,2.583324909E-2,2.280998230E-2
1.330680618E1,-5.218498409E-2,-1.813173294E-3,2.023792267E-2
1.331680618E1,-7.258446887E-3,5.155563354E-3,4.893589020E-2
1.332680621E1,-2.610511146E-3,-4.023158550E-2,5.612754822E-2
1.333680621E1,7.214826532E-3,-6.066823006E-2,1.078319550E-2
1.334680621E1,9.540528990E-3,-7.759130001E-2,8.684158325E-3
1.335680621E1,2.502462268E-2,-1.004008055E-1,4.986000061E-2
1.336680621E1,2.064334042E-2,-1.099103689E-1,5.290889740E-2
1.338680618E1,1.559259742E-2,-7.883882523E-2,5.420207977E-2
1.339680618E1,3.377849609E-2,-8.231544495E-2,-3.566741943E-4
1.340680618E1,-1.535795629E-3,-6.420743465E-2,7.340431213E-3
1.341680618E1,1.590308547E-2,-3.385794163E-2,2.704715729E-2
1.342680618E1,1.198671758E-2,-8.243203163E-3,5.155086517E-2
1.343680618E1,-1.236570720E-2,2.514362335E-3,6.162261963E-2
1.345680614E1,2.029678971E-2,5.185723305E-2,-2.489089966E-3
1.346680614E1,1.501428522E-2,7.644283772E-2,-9.582519531E-3
1.347680614E1,-7.207265124E-3,8.613061905E-2,1.677036285E-2
1.348680614E1,2.313245088E-3,5.491399765E-2,4.309368134E-2
1.349680614E1,4.776641726E-4,4.780840874E-2,6.704521179E-2
1.350680614E1,-3.824526444E-3,3.588688374E-2,8.620452881E-2
1.351680614E1,8.976428770E-3,1.146805286E-2,5.022525787E-2
1.352680614E1,1.232471783E-2,2.787768841E-2,4.059791565E-2
1.353680614E1,1.060571056E-2,-8.160471916E-3,4.536819458E-2
1.354680614E1,-1.780826226E-2,-2.876603603E-2,2.155685425E-2
1.355680614E1,-2.187573165E-2,-2.400434017E-2,9.912490845E-3
1.356680614E1,-1.795187220E-2,-4.208719730E-2,1.757717133E-2
1.357680617E1,-1.368584950E-2,-1.840603352E-2,2.299499512E-2
1.358680617E1,-2.331741899E-2,-4.979431629E-2,-9.891510010E-3
1.359680617E1,7.966668345E-4,-6.161677837E-2,2.671337128E-2
1.360680617E1,-6.893888116E-3,-4.866611958E-2,1.316165924E-2
1.361680617E1,-2.311911993E-2,-3.362059593E-2,9.294605255E-2
1.363680614E1,-5.348046776E-3,-4.512190819E-2,8.001327515E-2
1.364680614E1,6.144348066E-3,-6.354296207E-2,6.240844727E-3
1.365680614E1,2.630531043E-2,-8.213877678E-2,3.300094604E-2
1.366680614E1,4.732946865E-3,-5.169224739E-2,3.838157654E-2
1.367680614E1,1.153079048E-2,-3.716862202E-2,-3.999710083E-3
1.368680614E1,1.148523390E-2,-3.897404671E-2,-1.758575439E-2
1.369680614E1,1.144362334E-2,-4.019725323E-2,2.877044678E-2
1.370680614E1,3.068845905E-2,-2.206480503E-2,9.431552887E-2
1.371680614E1,-2.028360404E-2,-2.153527737E-2,2.004404068E-1
1.372680614E1,-5.246920884E-2,8.029103279E-3,-4.984855652E-3
1.373680614E1,-1.551960502E-2,-3.539013863E-2,-1.243896484E-1
1.374680614E1,1.083893515E-2,-2.901101112E-2,-3.042697906E-2
1.375680614E1,3.845050931E-2,-3.300118446E-2,3.744029999E-2
1.376680614E1,-5.307557434E-2,-5.079686642E-2,-4.065227509E-2
1.377680614E1,7.858531550E-3,-2.708435059E-2,-8.749485016E-2
1.378680614E1,2.193915285E-2,-2.170026302E-2,-7.315635681E-3
1.379680614E1,4.853577353E-3,-2.897500992E-2,8.473777771E-2
1.380680614E1,4.910239484E-3,-1.176834106E-2,8.074760437E-2
1.381680614E1,3.824855201E-3,-2.830982208E-2,9.072399139E-2
1.382680617E1,-3.288265318E-3,-2.257990837E-2,1.148099899E-1
1.383680617E1,1.173906215E-2,-5.355238914E-2,9.089183807E-2
1.384680617E1,-1.618168503E-2,-1.251089573E-2,3.827190399E-2
1.385680617E1,-6.334730238E-2,1.648545265E-2,-9.570121765E-3
1.386680617E1,-5.122435838E-2,3.647994995E-2,9.711265564E-3
1.388680614E1,-7.854893059E-2,3.382146358E-2,6.511211395E-2
1.389680614E1,-6.787570566E-2,5.029439926E-4,5.796718597E-2
1.390680614E1,-4.224497080E-2,-9.010076523E-3,7.714080811E-2
1.391680614E1,-1.150887087E-2,-3.497827053E-2,3.890228271E-2
1.392680614E1,2.893723175E-2,-3.862380981E-2,-3.273200989E-2
1.393680614E1,1.138502546E-2,-6.981968880E-2,5.947113037E-3
1.394680614E1,3.842548281E-2,-6.164908409E-2,8.873939514E-3
1.395680614E1,1.121924073E-2,-6.897056103E-2,1.917362213E-2
1.396680614E1,9.353630245E-3,-7.607960701E-2,1.274394989E-2
1.397680614E1,-2.435275167E-2,-8.286178112E-2,-8.182525635E-4
1.398680614E1,-1.462068409E-2,-7.265841961E-2,-1.912879944E-2
1.399680614E1,3.083169460E-3,-6.189477444E-2,-8.614540100E-3
1.400680614E1,4.345629364E-3,-6.271529198E-2,1.097059250E-1
1.401680614E1,1.230082661E-2,-4.307997227E-2,1.632108688E-1
1.402680614E1,3.342215717E-2,-5.934929848E-2,6.789684296E-2
1.403680614E1,1.331427693E-2,-4.157650471E-2,-1.163015366E-1
1.404680614E1,2.158584818E-2,-5.189704895E-2,-1.639308929E-1
1.405680614E1,-8.026730269E-3,7.843852043E-3,2.115917206E-2
1.406680614E1,1.912091672E-2,4.712271690E-2,6.517505646E-2
1.407680617E1,2.296067774E-2,5.607509613E-2,8.260536194E-2
1.408680617E1,3.369702771E-2,3.393495083E-2,8.768749237E-2
1.409680617E1,1.531074569E-2,5.089020729E-2,8.293437958E-2
1.410680617E1,8.755624294E-3,2.353656292E-2,8.756351471E-2
1.411680617E1,1.311974227E-2,1.520168781E-2,8.258819580E-2
1.413680614E1,-3.583652526E-2,6.619095802E-3,5.362987518E-2
1.414680614E1,-2.385791764E-2,1.079082489E-2,4.874324799E-2
1.415680614E1,-6.162533909E-2,5.141377449E-3,-1.124668121E-2
1.416680614E1,-2.365151048E-2,-9.692311287E-3,-2.088737488E-2
1.417680614E1,-6.432747841E-2,-3.066837788E-2,1.273536682E-2
1.418680614E1,-6.639595330E-2,-4.770171642E-2,6.815528870E-2
1.419680614E1,-5.397073552E-2,-3.494501114E-2,1.021995544E-1
1.420680614E1,-4.059201106E-2,-6.048715115E-2,7.639884949E-2
1.421680614E1,-4.359097034E-2,-5.712914467E-2,9.926795959E-3
1.422680614E1,-2.722725272E-2,-6.757247448E-2,-6.170272827E-3
1.423680614E1,-4.299838096E-2,-3.884983063E-2,2.575302124E-2
1.424680614E1,-1.608341187E-2,-5.578935146E-2,3.131008148E-2
1.425680614E1,-2.304455638E-2,-7.269883156E-2,2.490139008E-2
1.426680614E1,8.662976325E-3,-7.278835773E-2,2.090358734E-2
1.427680614E1,2.809701487E-2,-5.838525295E-2,-2.377319336E-2
1.428680614E1,-5.646407604E-3,-7.021200657E-2,-4.209899902E-2
1.429680614E1,-6.513029337E-3,-6.971323490E-2,3.061103821E-2
1.430680614E1,1.312039793E-2,-5.221283436E-2,2.674007416E-2
1.431680614E1,2.856543660E-2,-2.988493443E-2,1.330661774E-2
1.432680617E1,2.752959728E-2,-2.024376392E-2,3.567409515E-2
1.433680617E1,1.860503852E-2,5.404233932E-3,2.918148041E-2
1.434680620E1,-2.642046660E-2,9.731054306E-4,3.308296204E-3
1.435680620E1,-8.408561349E-3,9.963035583E-3,2.995967865E-2
1.436680620E1,2.960383892E-3,-3.149855137E-2,3.264522552E-2
1.438680617E1,-1.789726317E-3,1.952993870E-2,1.646232605E-2
1.439680617E1,-1.715879142E-2,6.713986397E-3,3.788280487E-2
1.440680617E1,-3.853097558E-3,-8.424520493E-3,2.579593658E-2
1.441680617E1,-2.659516782E-2,3.454685211E-4,-7.248783112E-2
1.442680617E1,-3.239317983E-2,-1.921534538E-3,-1.259613037E-2
1.443680617E1,-2.759162337E-2,-5.008578300E-3,4.757022858E-2
1.444680617E1,-3.160165995E-2,-5.121946335E-3,2.883625031E-2
1.445680617E1,1.200740039E-2,-9.928107262E-3,2.448177338E-2
1.446680617E1,-5.358681083E-3,-2.894425392E-2,8.239078522E-2
1.447680617E1,-2.163739502E-2,-3.642213345E-2,8.514499664E-2
1.448680617E1,-2.881744504E-2,-3.316509724E-2,-3.202533722E-2
1.449680617E1,-4.341623187E-2,-2.051842213E-2,-2.233791351E-2
1.450680617E1,-5.461947620E-2,-4.572212696E-2,2.814197540E-2
1.451680617E1,-1.115195453E-2,-2.434432507E-2,1.506557465E-1
1.452680617E1,-4.066079855E-4,-1.325178146E-2,2.323608398E-1
1.453680617E1,-4.884779453E-3,-1.625466347E-2,-2.149200439E-2
1.454680617E1,-6.759554148E-3,-3.233671188E-2,-1.701850891E-1
1.455680617E1,4.945903271E-2,-3.198099136E-2,-1.389513016E-1
1.456680617E1,4.660962522E-2,-4.516899586E-2,6.039810181E-2
1.457680620E1,3.634900600E-2,9.802579880E-3,3.724479675E-2
1.458680620E1,5.543678999E-2,-1.337110996E-2,-7.739067078E-3
1.459680620E1,3.310199082E-2,-4.191875458E-2,-5.762100220E-2
1.460680620E1,-7.721096277E-3,-1.241612434E-2,-4.274749756E-2
1.461680620E1,-1.371937990E-2,-1.868081093E-2,1.287078857E-2
1.463680617E1,-3.446391225E-2,-1.801979542E-2,4.972934723E-2
1.465680614E1,-8.355811238E-3,-2.478420734E-2,8.574390411E-2
1.466680614E1,-3.764182329E-4,1.333951950E-2,8.332729340E-2
1.467680614E1,1.989126205E-3,2.395081520E-2,5.675792694E-2
1.468680614E1,-5.093553662E-2,2.951896191E-2,4.690074921E-2
1.469680614E1,2.151697874E-3,6.641566753E-2,4.905700684E-2
1.470680614E1,-1.092025638E-2,3.340387344E-2,3.438568115E-2
1.471680614E1,-5.509571731E-2,2.934753895E-2,4.609012604E-2
1.472680614E1,-5.807289481E-2,2.324092388E-2,4.349517822E-2
1.473680614E1,-3.838722408E-2,2.707791328E-2,9.853363037E-3
1.474680614E1,-1.932355762E-2,-4.957199097E-3,-7.027626038E-3
1.475680614E1,-1.833111048E-2,-4.876375198E-2,-4.065418243E-2
1.476680614E1,-1.204922795E-3,-5.071222782E-2,-4.296684265E-2
1.477680614E1,2.637604624E-2,-8.508372307E-2,2.674674988E-2
1.478680614E1,1.472118497E-2,-9.484171867E-2,3.670787811E-2
1.479680614E1,9.195178747E-3,-1.186723709E-1,2.754974365E-2
1.480680614E1,1.393544674E-2,-1.134513617E-1,-2.703285217E-2
1.481680614E1,5.055691302E-2,-1.077880859E-1,-3.124904633E-2
1.482680614E1,3.074768186E-2,-8.264422417E-2,8.428287506E-2
1.483680614E1,9.212298691E-2,-6.473815441E-2,9.442424774E-2
1.484680614E1,-2.028612792E-2,-2.418756485E-3,6.200790405E-3
1.485680614E1,9.677276015E-3,8.302092552E-2,-3.139495850E-3
1.486680614E1,-5.960226059E-3,7.308685780E-2,-2.240371704E-2
1.488680610E1,2.106986940E-3,5.815041065E-2,1.729011536E-2
1.489680610E1,8.212901652E-3,6.356072426E-2,2.613449097E-2
1.490680610E1,1.695756614E-2,6.080639362E-2,3.481483459E-2
1.491680610E1,3.978175670E-2,5.739760399E-2,6.014347076E-2
1.492680610E1,5.756539479E-2,4.189074039E-2,5.911445618E-2
1.493680610E1,5.089709908E-2,5.033290386E-2,5.808258057E-2
1.494680610E1,5.001958460E-2,5.833792686E-2,4.020690918E-2
1.495680610E1,2.381692827E-2,4.682886600E-2,-4.075050354E-3
1.496680610E1,-3.378339857E-2,4.993712902E-2,-2.436923981E-2
1.497680610E1,-3.706680238E-2,4.409635067E-2,-2.538108826E-2
1.498680610E1,-1.508760452E-2,4.621875286E-2,3.600502014E-2
1.499680610E1,-4.744154960E-2,3.163743019E-2,4.473686218E-2
1.500680610E1,-4.758562893E-2,-2.385973930E-3,1.033782959E-2
1.501680610E1,-1.604168862E-2,-4.722595215E-3,9.560585022E-3
1.502680610E1,-1.102744788E-2,-1.383483410E-2,-1.509189606E-2
1.503680610E1,-1.085530221E-2,-4.379057884E-2,-2.047348022E-2
1.504680610E1,-2.911627293E-2,-6.012332439E-2,5.549430847E-3
1.505680610E1,-6.243862212E-3,-4.391646385E-2,2.701854706E-2
1.506680610E1,-9.955428541E-3,-2.728462219E-2,2.700805664E-2
1.507680613E1,4.331320524E-4,-3.004026413E-2,6.526470184E-2
1.508680613E1,3.950595856E-4,-4.772901535E-3,7.227230072E-2
1.509680613E1,2.586166561E-2,4.807949066E-3,5.032444000E-2
1.510680613E1,3.142338991E-2,1.554739475E-2,3.535079956E-2
1.511680613E1,2.941804379E-2,1.105308533E-2,3.459835052E-2
1.512680613E1,2.960698307E-2,1.544535160E-2,7.683086395E-2
1.513680613E1,4.680427536E-2,7.190728188E-2,-7.920265198E-3
1.514680613E1,3.308149427E-2,5.070054531E-2,5.378723145E-4
1.515680613E1,2.320972085E-2,3.672587872E-2,4.970264435E-2
1.516680613E1,1.241721958E-2,4.724490643E-2,2.712631226E-2
1.517680613E1,-1.208627224E-2,6.556797028E-2,1.902484894E-2
1.518680613E1,2.691574395E-3,7.421004772E-2,1.570892334E-2
1.519680613E1,1.299247146E-3,8.961510658E-2,4.345798492E-2
1.520680613E1,-2.388951927E-2,1.088762283E-1,6.867218018E-2
1.521680613E1,1.677982509E-3,5.012357235E-2,6.015872955E-2
1.522680613E1,4.260839522E-2,4.192221165E-2,4.212570190E-2
1.523680613E1,3.830233589E-2,4.179215431E-2,6.733512878E-2
1.524680613E1,2.018675208E-2,3.965628147E-2,8.541297913E-2
1.525680613E1,2.682652697E-2,5.699634552E-2,-3.293609619E-2
1.526680613E1,-5.206987262E-4,6.495308876E-2,-7.463741302E-2
1.527680613E1,8.159562945E-3,3.307151794E-2,2.984237671E-2
1.528680613E1,6.013251841E-4,2.372026443E-2,1.632099152E-1
1.529680613E1,-1.811206713E-2,1.175284386E-2,1.505041122E-1
1.530680613E1,-3.135350347E-2,3.171801567E-3,2.267456055E-2
1.531680613E1,-3.381634504E-2,-1.760935783E-2,-5.490016937E-2
1.532680617E1,7.811114192E-3,-3.827404976E-2,1.156139374E-2
1.533680617E1,-1.737089455E-2,-2.284324169E-2,5.685997009E-2
1.534680617E1,-3.295201808E-2,-1.583099365E-3,3.048896790E-2
1.535680617E1,-1.087674499E-2,5.028605461E-3,-1.036682129E-1
1.536680617E1,-5.773946643E-3,-1.171541214E-2,-9.648227692E-2
1.538680613E1,3.914506733E-2,-8.958578110E-4,2.856922150E-2
1.539680613E1,3.043145314E-2,2.757918835E-2,7.677841187E-2
1.540680613E1,2.572856843E-2,1.342976093E-2,5.765724182E-2
1.541680613E1,6.296280026E-2,1.166999340E-2,9.809017181E-2
1.542680613E1,3.171553463E-2,8.533716202E-3,1.119718552E-1
1.543680613E1,4.551712424E-2,1.651501656E-2,1.329088211E-1
1.544680613E1,3.684515506E-2,5.005443096E-2,1.010560989E-1
1.545680613E1,2.866572328E-2,4.665470123E-2,6.666469574E-2
1.546680613E1,2.593779378E-2,4.045832157E-2,6.574058533E-2
1.547680613E1,4.353262484E-3,4.606556892E-2,1.691436768E-2
1.548680613E1,-1.463836432E-2,5.228304863E-2,3.522109985E-2
1.549680613E1,-1.112063974E-2,5.948448181E-2,1.537036896E-2
1.550680613E1,4.732985049E-3,5.051350594E-2,1.476192474E-2
1.551680613E1,-1.312686503E-2,1.815545559E-2,5.733013153E-2
1.552680613E1,-1.668590680E-2,2.482306957E-2,3.296470642E-2
1.553680613E1,-2.693030983E-2,3.149247169E-2,4.930400848E-2
1.554680613E1,-5.182884634E-4,-1.734268665E-2,3.924846649E-2
1.555680613E1,-1.036413014E-4,-5.383813381E-2,2.924823761E-2
1.556680613E1,6.969656795E-3,-3.644454479E-2,2.660751343E-3
1.557680617E1,1.932509616E-2,-3.201174736E-2,-2.851295471E-2
1.558680617E1,1.225242019E-2,-1.462364197E-2,-2.602863312E-2
1.559680617E1,2.394844592E-2,-1.376223564E-2,3.873634338E-2
1.560680617E1,1.020491123E-2,1.027309895E-2,1.776056290E-1
1.561680617E1,-3.327402100E-2,-1.587903500E-2,3.841781616E-2
1.563680613E1,-2.190374956E-2,3.968358040E-3,-7.024383545E-2
1.564680613E1,-1.066650078E-2,4.950642586E-3,2.772331238E-2
1.565680613E1,1.290642843E-2,5.978453159E-2,6.839942932E-2
1.566680613E1,3.542710468E-2,6.124973297E-2,4.911804199E-2
1.567680613E1,4.716762900E-2,3.476834297E-2,7.509422302E-2
1.568680613E1,3.634922579E-2,4.047787189E-2,7.215023041E-2
1.569680613E1,4.646769911E-2,3.582620621E-2,5.712509155E-2
1.570680613E1,7.868871093E-3,3.828132153E-2,5.645370483E-2
1.571680613E1,2.436871827E-2,1.242113113E-2,5.584335327E-2
1.572680613E1,1.186718326E-2,3.297483921E-2,6.494045258E-2
1.573680613E1,-1.431541704E-2,7.075560093E-2,2.861595154E-2
1.574680613E1,1.337977871E-2,8.660435677E-2,9.001731873E-3
1.575680613E1,1.453684084E-2,6.826078892E-2,2.760410309E-2
1.576680613E1,-3.086754121E-2,4.694914818E-2,2.218437195E-2
1.577680613E1,-3.565233201E-2,2.067279816E-2,5.265617371E-2
1.578680613E1,2.933021635E-3,9.646654129E-3,5.212688446E-2
1.579680613E1,-2.203610912E-2,-1.953125000E-2,6.849670410E-2
1.580680613E1,-4.881379195E-3,-1.188731194E-2,3.471469879E-2
1.581680613E1,1.540346723E-2,-6.090831757E-2,1.301479340E-2
1.582680616E1,1.829224639E-3,-8.009493351E-2,8.223533630E-3
1.583680616E1,2.156114951E-2,-5.973303318E-2,2.514743805E-2
1.584680616E1,7.624357939E-3,-6.496739388E-2,1.344299316E-2
1.585680617E1,6.597787142E-4,-4.047608376E-2,4.736423492E-2
1.586680617E1,-1.165744849E-2,-1.827931404E-2,6.214427948E-2
1.588680613E1,8.631780744E-3,-1.729691029E-2,2.190303802E-2
1.589680613E1,-2.114690840E-3,-1.507413387E-2,1.230144501E-2
1.590680616E1,1.090750657E-2,-3.494274616E-2,9.807586670E-3
1.591680616E1,2.563502640E-4,1.287460327E-2,9.797096252E-3
1.592680616E1,1.900529116E-2,7.881283760E-3,2.892208099E-2
1.593680616E1,-5.179156549E-3,3.354811668E-2,4.558849335E-2
1.594680616E1,-5.359043367E-3,2.005314827E-2,4.777526855E-2
1.595680616E1,1.910319924E-2,2.085113525E-2,-2.721786499E-3
1.596680616E1,-3.066094965E-2,1.687407494E-2,9.034156799E-3
1.597680616E1,7.963708602E-3,3.742277622E-2,3.762817383E-2
1.598680616E1,7.671959698E-3,3.429841995E-2,2.795124054E-2
1.599680616E1,-1.042571478E-2,4.307627678E-2,3.981208801E-2
1.600680616E1,-1.660630479E-2,3.913044930E-2,7.311725616E-2
1.601680616E1,-6.824657321E-4,5.122816563E-2,5.126094818E-2
1.602680616E1,6.357515696E-3,3.119814396E-2,7.721900940E-3
1.603680616E1,-5.556026474E-3,-2.676522732E-2,-7.035255432E-3
1.604680616E1,1.677694730E-2,-3.273630142E-2,7.170677185E-3
1.605680616E1,3.137165215E-3,1.555204391E-2,3.835010529E-2
1.606680616E1,3.012439609E-2,-4.720687866E-4,2.887344360E-2
1.607680620E1,3.041325882E-2,-9.213447571E-3,9.123611450E-2
1.608680620E1,-1.367561519E-3,5.762815475E-3,1.727209091E-1
1.609680620E1,-2.164758556E-2,-4.590630531E-3,7.445240021E-2
1.610680620E1,-1.411952730E-2,-2.292835712E-2,-5.265331268E-2
1.611680620E1,1.835289225E-2,-2.579188347E-2,-3.595542908E-2
1.613680616E1,-2.829031274E-2,-3.641164303E-2,1.929473877E-2
1.614680620E1,-3.592212126E-2,-4.977393150E-2,-1.361923218E-1
1.615680620E1,-2.777695656E-2,-8.350503445E-2,-2.172985077E-1
1.616680620E1,-1.875343546E-2,-5.119884014E-2,-6.804466248E-2
1.617680620E1,2.697806060E-2,-4.103386402E-2,1.101922989E-1
1.618680620E1,4.344283789E-2,-3.226900101E-2,1.685314178E-1
1.619680620E1,2.733092941E-2,2.563500404E-2,1.066741943E-1
1.621680616E1,5.754315108E-2,-4.106998444E-3,4.634380341E-2
1.622680616E1,2.670757100E-2,1.671636105E-2,3.872871399E-2
1.623680616E1,1.965820231E-2,4.503762722E-2,5.510044098E-2
1.624680616E1,-2.124284022E-2,5.183029175E-2,7.626533508E-2
1.625680616E1,-4.081350751E-3,7.265508175E-2,3.753089905E-2
1.626680616E1,-3.113543615E-2,5.724835396E-2,1.072597504E-2
1.627680616E1,-4.543970898E-2,6.141924858E-2,1.271057129E-2
1.628680616E1,-3.992448747E-2,6.367385387E-2,1.955032349E-2
1.629680616E1,-9.905344807E-3,5.462205410E-2,3.605842590E-2
1.630680616E1,-1.862801984E-2,3.143274784E-2,5.020332336E-2
1.631680616E1,4.144588951E-3,-1.071143150E-2,3.324985504E-2
1.632680620E1,1.207915135E-3,-2.574658394E-2,1.640224457E-2
1.633680620E1,2.216043137E-2,-6.670534611E-2,2.005577087E-3
1.634680620E1,3.500350937E-2,-6.854772568E-2,-2.707481384E-3
1.635680620E1,1.771682315E-2,-1.100542545E-1,7.082939148E-3
1.636680620E1,1.974295825E-3,-8.550703526E-2,4.818725586E-2
1.638680616E1,4.968399182E-3,-1.741743088E-2,1.255884171E-1
1.639680616E1,-1.694068685E-2,-1.704287529E-2,1.807041168E-1
1.640680616E1,-2.534833923E-2,-2.351307869E-2,-1.824474335E-2
1.641680616E1,-7.778671104E-3,-3.748190403E-2,-1.382246017E-1
1.642680616E1,7.543108892E-3,-3.101348877E-3,-4.473209381E-2
1.643680616E1,8.519297466E-3,2.362930775E-2,8.493328094E-2
1.645680613E1,7.305233926E-2,4.506933689E-2,6.848716736E-2
1.646680613E1,6.295312196E-2,5.254924297E-2,5.383586884E-2
1.647680613E1,2.490815893E-2,2.483141422E-2,3.043174744E-3
1.648680613E1,1.030599792E-2,6.794929504E-3,-1.182079315E-2
1.649680613E1,-6.895056926E-3,2.608191967E-2,5.012226105E-2
1.650680613E1,9.386727586E-3,3.451049328E-2,8.109092712E-2
1.651680613E1,-2.233469114E-2,5.031716824E-2,8.096313477E-2
1.652680613E1,-2.414904721E-2,6.544077396E-2,7.595443726E-2
1.653680613E1,-4.887308180E-2,4.837131500E-2,6.160736084E-3
1.654680613E1,-1.493763924E-2,2.888834476E-2,-2.054214478E-2
1.655680613E1,-1.680825651E-2,5.332708359E-3,1.031398773E-2
1.656680613E1,-2.404653654E-2,3.282618523E-2,4.845619202E-2
1.657680616E1,-1.136628352E-2,-2.821052074E-2,6.505680084E-2
1.658680616E1,-8.286182769E-3,-3.608536720E-2,7.454109192E-2
1.659680616E1,-1.961071976E-4,-8.466124535E-2,4.332351685E-2
1.660680616E1,1.321183890E-2,-9.325766563E-2,3.866577148E-2
1.661680616E1,7.244856562E-3,-8.625888824E-2,-1.740455627E-3
1.663680613E1,-1.812240668E-2,-7.047319412E-2,5.687522888E-2
1.664680613E1,5.791041069E-3,-4.140448570E-2,6.714344025E-2
1.665680613E1,1.300477143E-2,-3.958249092E-2,3.419589996E-2
1.666680613E1,3.375029424E-3,-2.178788185E-2,1.071929932E-2
1.667680613E1,1.775923744E-2,-4.530668259E-3,3.026676178E-2
1.668680613E1,1.052691042E-2,2.719163895E-4,4.974842072E-2
1.669680613E1,8.032792248E-4,1.653623581E-2,3.564262390E-2
1.670680613E1,1.549677178E-2,8.193612099E-3,5.257129669E-2
1.671680613E1,1.347834477E-3,1.390910149E-2,5.509185791E-2
1.672680613E1,-7.360227173E-4,2.904260159E-2,5.040931702E-2
1.673680613E1,1.153254416E-2,3.183507919E-2,1.455116272E-2
1.674680613E1,-1.949376799E-2,3.223979473E-2,-2.848911285E-2
1.675680613E1,-4.859167151E-3,3.997242451E-2,-1.644325256E-2
1.676680613E1,-1.202511322E-2,4.282534122E-2,3.868770599E-2
1.677680613E1,1.445931755E-2,1.665246487E-2,8.898735046E-2
1.678680613E1,7.629800588E-3,1.401567459E-2,6.261920929E-2
1.679680613E1,2.711005136E-2,1.792037487E-2,5.531406403E-2
1.680680613E1,2.710212395E-2,-1.168191433E-2,4.322433472E-2
1.681680613E1,-1.138692535E-2,-4.717946053E-3,2.643394470E-2
1.682680616E1,-1.154460013E-2,-4.559755325E-3,2.645683289E-2
1.683680616E1,-2.108816057E-2,-2.815639973E-2,4.565715790E-2
1.684680616E1,-6.079137325E-3,-2.240192890E-2,1.128273010E-1
1.685680616E1,-3.884619102E-2,-3.314197063E-2,1.106023788E-1
1.686680616E1,-6.391231716E-2,-2.770733833E-2,7.740974426E-3
1.688680612E1,-6.809644401E-5,-8.209896088E-2,2.014064789E-2
1.689680612E1,1.773965545E-2,-3.451907635E-2,3.273391724E-2
1.690680613E1,-1.427805051E-3,-3.277862072E-2,-6.963920593E-2
1.691680612E1,5.767733790E-3,-6.430637836E-2,-1.600055695E-1
1.692680613E1,-9.064253420E-3,-4.119384289E-2,-1.255979538E-1
1.693680612E1,1.958974078E-2,-4.693508148E-3,3.351402283E-2
1.694680613E1,1.933463290E-2,-6.969094276E-3,1.327104568E-1
1.695680612E1,1.116999425E-2,-1.131892204E-2,1.693677902E-1
1.696680612E1,2.122256532E-2,2.853512764E-3,1.864404678E-1
1.697680612E1,3.787380457E-2,-3.833484650E-2,9.060287476E-2
1.698680612E1,8.908553049E-3,-4.203534126E-2,4.492759705E-2
1.699680613E1,-2.491429634E-2,-1.650083065E-2,2.565956116E-2
1.700680612E1,-2.457103692E-2,-1.985907555E-3,4.133224487E-3
1.701680613E1,-5.020717531E-2,2.323353291E-2,1.150035858E-2
1.702680612E1,-3.796429932E-2,1.317763329E-2,1.895523071E-2
1.703680613E1,-4.156896472E-2,1.775765419E-2,2.884578705E-2
1.704680612E1,-4.631681740E-2,1.776826382E-2,3.159236908E-2
1.705680612E1,-1.688471809E-2,2.026438713E-2,5.111217499E-2
1.706680612E1,-1.830232888E-2,1.760232449E-2,5.142974854E-2
1.707680616E1,2.588226460E-2,-3.329443932E-2,3.015041351E-2
1.708680616E1,4.804350063E-2,-3.308343887E-2,1.617336273E-2
1.709680616E1,3.569021448E-2,-7.034695148E-2,-4.870414734E-3
1.710680616E1,3.900631517E-2,-7.291471958E-2,2.981185913E-3
1.711680616E1,2.022153325E-2,-8.393907547E-2,3.014945984E-2
1.713680612E1,-4.290961102E-2,-7.143616676E-2,-5.423545837E-2
1.714680612E1,-4.496785626E-2,-5.341649055E-2,-5.474090576E-3
1.715680612E1,-4.118585214E-2,-5.450689793E-2,1.318874359E-1
1.716680612E1,-4.091028497E-2,-5.136895180E-2,1.207370758E-1
1.717680612E1,-6.748087704E-3,-2.997839451E-2,-5.094337463E-2
1.718680612E1,1.421798393E-2,-2.032804489E-2,-5.498695374E-2
1.719680612E1,4.156063870E-2,4.073381424E-2,-3.013038635E-2
1.720680612E1,2.237023786E-2,4.091644287E-2,4.006099701E-2
1.721680612E1,4.084975272E-2,5.364954472E-2,6.209373474E-2
1.722680616E1,3.350680694E-2,4.453706741E-2,6.934547424E-2
1.723680616E1,-8.475087583E-3,2.392530441E-2,1.361551285E-1
1.724680616E1,4.393231124E-3,-3.385925293E-2,1.046142578E-1
1.725680616E1,1.541588828E-2,-3.870701790E-2,3.241443634E-2
1.726680616E1,-3.801729530E-3,-1.539957523E-2,3.588676453E-3
1.727680616E1,-2.773187682E-2,-2.178633213E-2,-1.080513000E-3
1.728680616E1,-5.958691239E-3,-2.588868141E-3,1.365280151E-2
1.729680616E1,-2.787411213E-4,-9.354233742E-3,-1.225662231E-2
1.730680616E1,-7.798396051E-3,2.506923676E-2,3.613662720E-2
1.731680616E1,-2.769764140E-2,1.368379593E-2,4.378032684E-2
1.732680619E1,-2.393924072E-2,1.133882999E-2,7.288932800E-2
1.733680619E1,-1.771115884E-2,-1.099014282E-2,1.066617966E-1
1.734680619E1,-2.314487100E-2,-2.420449257E-2,9.248161316E-2
1.735680619E1,-1.655746251E-2,-4.732644558E-2,5.670452118E-2
1.736680619E1,-3.126732260E-2,-8.693039417E-2,3.773212433E-2
1.738680616E1,-3.608816117E-2,-8.813273907E-2,-7.624435425E-2
1.739680616E1,-2.388345450E-2,-8.591449261E-2,-8.481979370E-3
1.740680616E1,-2.078724653E-2,-6.536555290E-2,2.840423584E-2
1.741680616E1,-5.837507546E-3,-4.721558094E-2,3.045082092E-3
1.742680616E1,8.912459016E-4,-6.076836586E-2,-8.042335510E-3
1.743680616E1,-1.523121446E-2,-4.340958595E-2,1.195335388E-2
1.744680616E1,-5.208060145E-3,-2.391433716E-2,2.472782135E-2
1.745680616E1,7.869452238E-3,-1.672220230E-2,3.506469727E-2
1.746680616E1,1.186385751E-2,-2.453386784E-2,1.178932190E-2
1.747680616E1,-2.500380576E-2,-3.957259655E-2,7.948684692E-2
1.748680616E1,-3.052727878E-2,4.160404205E-5,3.459739685E-2
1.749680616E1,2.224964648E-2,4.968523979E-3,2.065563202E-2
1.750680616E1,2.228303999E-2,-1.501584053E-2,2.810859680E-2
1.751680616E1,1.498801261E-2,5.302786827E-3,1.979827881E-3
1.753680612E1,-1.378240436E-2,1.601099968E-2,1.894187927E-2
1.754680612E1,-2.367174625E-2,6.944179535E-3,-2.528190613E-3
1.755680612E1,-5.323160440E-2,-1.372408867E-2,-9.579658508E-3
1.756680612E1,-4.641910642E-2,1.206493378E-2,4.098892212E-2
1.757680616E1,-4.531326145E-2,1.891529560E-2,9.399986267E-2
1.758680616E1,-6.559982896E-3,-1.054775715E-2,1.613321304E-1
1.759680616E1,-2.512468398E-2,9.367465973E-3,1.662731171E-1
1.760680616E1,-6.080160290E-2,-2.274322510E-2,-2.778625488E-2
1.761680616E1,-1.457611471E-2,-3.039038181E-2,-1.235933304E-1
1.763680612E1,1.351860911E-2,-3.351449966E-2,1.158809662E-2
1.764680612E1,-2.489410341E-3,-4.100930691E-2,3.442764282E-4
1.765680612E1,3.997869790E-3,-7.297122478E-2,-8.761501312E-2
1.766680612E1,2.731879801E-2,-6.091392040E-2,-6.768321991E-2
1.767680612E1,1.939421892E-2,-7.847189903E-2,-1.877593994E-2
1.768680612E1,1.000328362E-2,-5.376756191E-2,5.434322357E-2
1.769680612E1,9.738178551E-2,-5.101239681E-2,2.685928345E-2
1.770680612E1,-3.701448441E-2,-4.248654842E-2,6.377410889E-2
1.771680612E1,-1.104950905E-2,2.943038940E-3,1.196146011E-1
1.772680612E1,3.129610419E-2,1.068973541E-2,1.536130905E-1
1.773680612E1,2.804967016E-2,-7.205367088E-3,7.959079742E-2
1.774680612E1,-2.159998566E-2,4.447102547E-3,2.684497833E-2
1.775680612E1,-8.259885013E-3,-9.171962738E-4,4.014968872E-4
1.776680612E1,-2.835091949E-2,-2.067828178E-2,1.704978943E-2
1.777680612E1,-3.499796242E-2,1.361024380E-2,7.606506348E-3
1.778680612E1,-4.518719018E-2,-1.411414146E-2,1.258182526E-2
1.779680612E1,-5.697086453E-2,4.130840302E-3,-3.901481628E-3
1.780680612E1,-3.218224645E-2,8.117556572E-3,8.373260498E-3
1.781680612E1,-1.750928164E-2,-1.887524128E-2,2.066421509E-2
1.782680612E1,-2.430602908E-2,-1.923155785E-2,2.822113037E-2
1.783680612E1,2.043202519E-3,-3.401410580E-2,3.815746307E-2
1.784680612E1,1.298946887E-2,-6.081867218E-2,2.652454376E-2
1.785680612E1,2.323664725E-2,-4.181206226E-2,2.965927124E-3
1.786680612E1,2.055257559E-3,-7.973015308E-2,5.829811096E-3
1.788680609E1,2.125628293E-2,-3.510487080E-2,4.040622711E-2
1.789680609E1,-3.540962934E-3,3.339529037E-3,1.174345016E-1
1.790680609E1,-3.105774522E-3,-2.282321453E-2,7.913017273E-2
1.791680609E1,1.389174908E-2,-2.624726295E-2,-7.915496826E-5
1.792680609E1,9.943082929E-3,-1.516890526E-2,-1.461410522E-2
1.793680609E1,8.846662939E-3,2.300059795E-2,-7.467269897E-3
1.794680609E1,2.300619334E-2,4.354596138E-3,4.585266113E-3
1.795680609E1,3.583009541E-2,3.629517555E-2,1.191616058E-2
1.796680609E1,2.447027713E-2,2.448534966E-2,7.419967651E-2
1.797680609E1,2.383124828E-2,1.182019711E-2,5.970954895E-2
1.798680609E1,1.092442125E-2,2.226734161E-2,4.986572266E-2
1.799680609E1,1.917757839E-2,1.543366909E-2,6.626510620E-2
1.800680609E1,-2.792122960E-2,2.554929256E-2,5.156993866E-2
1.801680609E1,-2.410991490E-2,9.343147278E-3,9.727478027E-4
1.802680609E1,-2.001483738E-2,1.040601730E-2,-1.601791382E-2
1.803680609E1,-1.796922833E-2,3.106379509E-2,-3.771781921E-2
1.804680609E1,-1.315531880E-2,2.787947655E-2,2.679347992E-2
1.805680609E1,1.383341849E-3,-6.549000740E-3,8.410453796E-2
1.806680609E1,-6.154254079E-4,-1.029765606E-2,8.867263794E-2
1.807680612E1,-1.494674385E-2,-4.302275181E-2,8.361816406E-2
1.808680612E1,-1.230695844E-2,-6.841266155E-2,4.507255554E-2
1.809680612E1,-3.774491698E-2,-8.109283447E-2,1.144790649E-2
1.810680612E1,-3.407521546E-2,-7.853317261E-2,2.106761932E-2
1.811680612E1,-2.741663903E-2,-5.075871944E-2,-1.937103271E-2
1.812680612E1,9.840428829E-4,-3.910148144E-2,2.548217773E-3
1.813680612E1,1.486388594E-2,-4.140424728E-2,2.214050293E-2
1.814680612E1,2.760470659E-2,-4.123091698E-2,4.412746429E-2
1.815680612E1,1.506897807E-2,4.145741463E-3,3.252983093E-2
1.816680612E1,6.683863699E-3,4.974603653E-3,1.589393616E-2
1.817680612E1,1.014123112E-2,9.276032448E-3,1.579570770E-2
1.818680612E1,2.296052873E-2,2.192866802E-2,3.518104553E-3
1.819680612E1,2.067163587E-3,7.252216339E-3,-2.089786530E-2
1.820680612E1,-6.839998066E-3,1.620233059E-2,-1.423835754E-2
1.821680612E1,5.768723786E-3,1.801550388E-2,3.073501587E-2
1.822680612E1,6.370119750E-3,4.147255421E-2,3.262901306E-2
1.823680612E1,2.728551626E-3,6.474280357E-2,1.055908203E-2
1.824680612E1,2.108874917E-2,5.152380466E-2,-4.418373108E-3
1.825680612E1,-1.220852137E-3,6.721937656E-2,3.330898285E-2
1.826680612E1,-5.342386663E-3,5.345344543E-2,3.738880157E-2
1.827680612E1,-1.019187272E-3,6.770205498E-2,2.936935425E-2
1.828680612E1,-3.487455100E-2,5.268251896E-2,2.605533600E-2
1.829680612E1,6.471395493E-3,5.469477177E-2,1.252174377E-3
1.830680612E1,-2.326886356E-2,2.067816257E-2,1.200923920E-1
1.831680612E1,2.074576914E-3,2.529776096E-2,1.767406464E-1
1.832680615E1,-1.101688296E-2,-9.771347046E-3,-6.253242493E-3
1.833680615E1,1.208133996E-2,-4.018008709E-2,-9.588527679E-2
1.834680615E1,4.230627418E-2,-1.554739475E-2,-7.021427155E-2
1.835680615E1,4.317892343E-2,-1.935148239E-2,6.159782410E-3
1.836680615E1,1.113364100E-2,-3.421199322E-2,-2.747058868E-2
1.838680612E1,4.244746640E-2,-5.300784111E-2,-3.705501556E-2
1.839680612E1,5.842869729E-2,-2.027857304E-2,-3.443145752E-2
1.840680612E1,1.940491796E-2,-9.142160416E-3,7.113742828E-2
1.841680612E1,4.790157080E-3,1.084935665E-2,7.603836060E-2
1.842680612E1,-1.681574434E-2,1.467967033E-2,6.628894806E-2
1.843680612E1,1.464946941E-2,2.879619598E-2,7.063961029E-2
1.844680612E1,1.242299005E-2,8.133172989E-3,1.322498322E-1
1.845680612E1,9.772654623E-3,5.425071716E-2,1.076269150E-1
1.846680612E1,7.652413100E-3,4.385995865E-2,9.714698792E-2
1.847680612E1,4.145502299E-2,4.960632324E-2,7.460212708E-2
1.848680612E1,3.912825882E-2,6.190252304E-2,9.745025635E-2
1.849680612E1,4.388455302E-2,8.390438557E-2,3.174018860E-2
1.850680612E1,1.020428911E-2,6.941246986E-2,1.382637024E-2
1.851680612E1,-8.973542601E-3,3.148698807E-2,3.909397125E-2
1.852680612E1,-1.825775951E-2,2.861130238E-2,6.460475922E-2
1.853680612E1,-5.471158773E-3,5.060613155E-2,5.914020538E-2
1.854680612E1,3.218539059E-4,3.405785561E-2,5.603694916E-2
1.855680612E1,8.950967342E-3,-1.844727993E-2,2.180671692E-2
1.856680612E1,-3.673435375E-2,3.528535366E-2,8.827495575E-2
1.857680615E1,6.201430410E-2,-3.650641441E-2,1.363754272E-3
1.858680615E1,1.227667928E-2,-9.432315826E-2,-1.807212830E-3
1.859680615E1,4.698973149E-3,-9.968698025E-2,7.196235657E-2
1.860680615E1,2.851392701E-2,-6.895339489E-2,9.345054626E-2
1.861680615E1,-4.750557244E-3,5.242824554E-3,1.533031464E-1
1.863680612E1,-9.771231562E-3,2.750122547E-2,8.288383484E-2
1.864680612E1,-1.948875934E-2,8.608257771E-2,-9.280204773E-2
1.865680612E1,-2.059501037E-2,7.601666451E-2,-1.849193573E-1
1.866680612E1,-4.493219778E-2,8.624243736E-2,-1.044769287E-1
1.867680612E1,-1.441529393E-2,6.660950184E-2,1.446342468E-2
1.868680612E1,1.050875336E-2,5.182754993E-2,6.398010254E-2
1.869680612E1,1.109528542E-2,4.600119591E-2,6.312847137E-2
1.870680612E1,4.037164897E-2,4.189407825E-2,6.218147278E-2
1.871680612E1,4.281187803E-2,3.994882107E-2,5.162620544E-2
1.872680612E1,2.700827271E-2,8.117461205E-2,7.220458984E-2
1.873680612E1,2.960077301E-2,7.645344734E-2,7.356262207E-2
1.874680612E1,1.277593151E-2,6.455910206E-2,5.577468872E-2
1.875680612E1,-1.404525712E-2,4.572510719E-2,8.351421356E-2
1.876680612E1,-4.070390016E-3,9.920549393E-2,-3.232002258E-2
1.877680612E1,-2.170768008E-2,9.707629681E-2,5.049800873E-2
1.878680612E1,1.524531841E-2,5.654573441E-2,7.823944092E-2
1.879680612E1,1.329604536E-3,3.068494797E-2,4.856395721E-2
1.880680612E1,4.892084748E-3,3.807544708E-4,5.246448517E-2
1.881680612E1,1.574716717E-2,-2.149426937E-2,2.781105042E-2
1.882680615E1,-1.945216209E-3,-4.663491249E-2,1.055335999E-2
1.883680615E1,6.968159229E-3,-5.070114136E-2,2.947521210E-2
1.884680615E1,-3.137785941E-3,-4.380130768E-2,6.055831909E-2
1.885680615E1,3.280300274E-2,-3.348493576E-2,3.192996979E-2
1.886680615E1,8.256372064E-3,-3.485238552E-2,2.488708496E-2
1.888680612E1,-1.601150259E-3,-9.634494781E-3,2.744770050E-2
1.889680612E1,1.347333845E-2,-1.440417767E-2,3.941726685E-2
1.890680612E1,1.138096955E-2,1.167476177E-2,3.937625885E-2
1.891680612E1,1.714665629E-2,-6.161212921E-3,3.443527222E-2
1.892680612E1,3.027724847E-2,9.009242058E-3,2.942562103E-2
1.893680612E1,1.440828107E-2,4.027831554E-2,2.192974091E-2
1.894680612E1,1.224113069E-2,3.005242348E-2,7.143020630E-3
1.895680612E1,-1.402030513E-2,2.038896084E-2,-9.959220886E-3
1.896680612E1,6.861153990E-3,3.786861897E-2,-1.737213135E-2
1.897680612E1,-8.536137640E-3,7.308721542E-2,5.196380615E-2
1.898680612E1,-1.887921803E-2,7.871270180E-2,6.132698059E-2
1.899680612E1,9.121390991E-3,6.197416782E-2,3.945541382E-2
1.900680612E1,3.831285052E-3,3.969025612E-2,1.269340515E-2
1.901680612E1,-2.313873544E-2,5.048239231E-2,8.403491974E-2
1.902680612E1,-9.709273465E-3,6.355178356E-2,8.114051819E-2
1.903680612E1,-5.466006696E-4,2.362847328E-2,4.229259491E-2
1.904680612E1,1.999503002E-3,3.642952442E-2,-8.517265320E-3
1.905680612E1,1.151829585E-2,2.547764778E-2,2.449703217E-2
1.906680612E1,1.036942005E-3,2.018618584E-2,3.847503662E-2
1.907680615E1,3.865191340E-2,3.529667854E-3,1.004171371E-1
1.908680615E1,6.565094460E-3,-9.975910187E-3,1.337318420E-1
1.909680615E1,-2.341477759E-2,-2.137494087E-2,4.490280151E-2
1.910680615E1,-1.494786888E-2,-2.820491791E-2,-5.646705627E-3
1.911680615E1,1.171012968E-2,-2.030456066E-2,-8.008861542E-2
1.913680612E1,-5.777264014E-4,-1.816260815E-2,-2.026557922E-2
1.914680612E1,-2.879975922E-2,-4.057002068E-2,-7.512855530E-2
1.915680612E1,-2.319404855E-2,-6.174314022E-2,-1.298265457E-1
1.916680612E1,6.901100278E-5,-2.813601494E-2,-5.256175995E-2
1.917680612E1,1.938800700E-2,-1.972734928E-2,7.753276825E-2
1.918680612E1,3.535962850E-2,-2.752542496E-4,1.237068176E-1
1.919680612E1,4.267733172E-2,4.549026489E-3,1.168518066E-1
1.920680612E1,4.866064340E-2,6.771087646E-4,1.190452576E-1
1.921680612E1,7.111052424E-2,-9.980797768E-3,9.463405609E-2
1.922680612E1,3.306640312E-2,-1.168477535E-2,6.774616241E-2
1.923680612E1,9.401924908E-3,2.283477783E-2,4.090118408E-2
1.924680612E1,-4.215315916E-3,3.373146057E-2,-1.462841034E-2
1.925680612E1,-2.040803432E-2,5.248630047E-2,1.851749420E-2
1.926680612E1,-3.398896009E-2,4.790353775E-2,6.132221222E-2
1.927680612E1,-1.595624164E-2,4.639625549E-2,6.591033936E-2
1.928680612E1,-1.819887012E-2,5.483102798E-2,3.463459015E-2
1.929680612E1,2.593176626E-2,5.584502220E-2,2.727031708E-2
1.930680612E1,1.735650003E-2,3.746938705E-2,2.226924896E-2
1.931680612E1,9.944546036E-4,4.433751106E-3,1.004600525E-2
1.932680615E1,1.490311697E-3,-4.720556736E-2,3.859806061E-2
1.933680615E1,9.226312861E-3,-6.147837639E-2,3.382205963E-2
1.934680615E1,1.891523786E-2,-8.908474445E-2,7.634162903E-3
1.935680615E1,-5.380231421E-3,-1.015485525E-1,-4.086494446E-3
1.936680615E1,2.037259750E-2,-9.880828857E-2,1.542854309E-2
1.938680612E1,-2.222801559E-2,-2.403259277E-2,1.741514206E-1
1.939680612E1,-2.243650705E-2,-3.130662441E-2,1.166782379E-1
1.940680612E1,-2.239679545E-2,-4.148840904E-3,-8.464336395E-2
1.941680612E1,-1.428863732E-3,1.989722252E-3,-1.087236404E-1
1.942680612E1,-4.662548192E-3,5.833029747E-3,-3.186225891E-3
1.943680612E1,6.068725605E-3,6.865322590E-2,7.621669769E-2
1.944680612E1,-1.005235128E-2,8.932006359E-2,1.123304367E-1
1.945680612E1,9.918715805E-3,4.522025585E-2,6.670856476E-2
1.946680612E1,2.930281311E-2,9.060144424E-3,5.199241638E-2
1.947680612E1,3.425689042E-2,1.507878304E-3,5.401992798E-2
1.948680612E1,2.827259153E-2,6.063342094E-3,6.564331055E-2
1.949680612E1,7.501132786E-3,-1.237988472E-3,5.094623566E-2
1.950680612E1,4.664850130E-4,2.784943581E-2,4.349422455E-2
1.951680612E1,-2.327566221E-2,3.283381462E-2,2.165699005E-2
1.952680612E1,-1.538278908E-2,4.767477512E-2,3.098297119E-2
1.953680612E1,-5.762830749E-2,3.609681129E-2,3.551006317E-2
1.954680612E1,-3.409826756E-2,2.967679501E-2,1.853656769E-2
1.955680612E1,-3.050484695E-2,2.117466927E-2,1.596927643E-2
1.956680612E1,-4.439735785E-3,-8.678317070E-3,3.497600555E-2
1.957680615E1,-2.828062978E-3,-3.327345848E-2,1.813030243E-2
1.958680615E1,8.295681328E-3,-6.669247150E-2,1.574993134E-2
1.959680615E1,2.146240138E-2,-7.270193100E-2,3.931999207E-3
1.960680615E1,-1.128072478E-2,-6.349837780E-2,2.095603943E-2
1.961680615E1,1.761084050E-2,-8.480596542E-2,2.369499207E-2
1.963680611E1,3.993625194E-2,-6.420838833E-2,5.085086823E-2
1.964680611E1,3.615044802E-2,-4.001116753E-2,8.104324341E-3
1.965680611E1,3.457059711E-2,-2.815735340E-2,3.952980042E-2
1.966680611E1,2.082311735E-2,2.414464951E-3,3.019714355E-2
1.967680611E1,9.544109926E-3,-1.509904861E-3,3.510093689E-2
1.968680611E1,5.564392079E-3,8.498311043E-3,3.994750977E-2
1.969680611E1,-7.764715701E-3,3.752076626E-2,3.759288788E-2
1.970680611E1,-4.193871282E-3,4.906976223E-2,4.472064972E-2
1.971680611E1,4.544365220E-3,4.068517685E-2,4.695606232E-2
1.972680611E1,-8.191598579E-3,3.408658504E-2,4.911136627E-2
1.973680611E1,-6.220628507E-3,2.515971661E-2,2.733325958E-2
1.974680611E1,3.381787799E-3,3.340911865E-2,3.434085846E-2
1.975680611E1,-6.165646948E-3,4.673242569E-2,4.617500305E-2
1.976680611E1,8.370755240E-3,2.677619457E-2,6.761646271E-2
1.977680611E1,-1.117664296E-2,2.155673504E-2,6.037807465E-2
1.978680611E1,-1.654639095E-2,2.376306057E-2,3.880500793E-2
1.979680611E1,4.896503873E-3,1.421284676E-2,5.317401886E-2
1.980680611E1,2.481108904E-2,9.467005730E-3,4.599666595E-2
1.981680611E1,-7.456891704E-3,-2.418410778E-2,3.400611877E-2
1.982680615E1,-1.065974310E-2,-5.524861813E-2,2.204227448E-2
1.983680615E1,1.039389521E-2,-5.695521832E-2,-2.814769745E-2
1.984680615E1,-2.930957079E-2,-3.336334229E-2,-1.111888885E-2
1.985680615E1,-2.382328734E-3,-3.798198700E-2,8.374214172E-3
1.986680615E1,-1.958268881E-2,-4.451656342E-2,8.299636841E-2
1.988680611E1,-1.128865220E-2,-2.978861332E-2,1.004400253E-1
1.989680611E1,-1.048573852E-2,-4.041397572E-2,1.682186127E-2
1.990680611E1,-1.951506734E-2,-1.713359356E-2,7.475852966E-3
1.991680611E1,-2.130505629E-2,-1.018786430E-2,-1.138973236E-2
1.992680611E1,1.596650854E-2,4.590034485E-3,1.292800903E-2
1.993680611E1,1.747713238E-2,1.291930676E-2,9.959411621E-2
1.994680611E1,1.377948187E-2,2.097523212E-2,1.503124237E-1
1.995680611E1,1.166848186E-2,8.130192757E-3,8.587360382E-2
1.996680611E1,6.989128422E-3,-1.557648182E-2,-1.225662231E-2
1.997680611E1,1.240297034E-2,-4.640603065E-2,-7.428169250E-3
1.998680611E1,1.594999433E-2,-4.187119007E-2,-9.533882141E-3
1.999680611E1,-7.175005972E-3,-3.644824028E-2,-8.334350586E-2
2.000680611E1,-3.305814788E-2,-8.035218716E-2,-1.043510437E-1
2.001680611E1,-2.049754001E-2,-6.220853329E-2,-1.370286942E-1
2.002680611E1,-4.581007175E-3,-4.178106785E-2,-3.291893005E-2
2.003680611E1,-9.849559516E-3,-8.870959282E-3,1.478834152E-1
2.004680611E1,-8.186009713E-3,-1.914858818E-3,1.488504410E-1
2.005680611E1,9.530520067E-3,6.427288055E-3,1.038570404E-1
2.006680611E1,1.538746618E-2,-1.457214355E-2,1.063289642E-1
2.007680615E1,1.291621663E-2,-4.674184322E-2,7.745265961E-2
2.008680615E1,1.539210603E-2,3.116130829E-3,7.021141052E-2
2.009680615E1,1.490932889E-3,3.621435165E-2,4.860591888E-2
2.010680615E1,-1.490812190E-2,3.590917587E-2,4.138183594E-2
2.011680615E1,-1.957984082E-2,4.977786541E-2,2.694702148E-2
2.013680611E1,-3.972209990E-2,4.431486130E-2,2.206802368E-2
2.014680611E1,-3.842734545E-2,3.687763214E-2,5.076408386E-2
2.015680611E1,-1.970697381E-2,7.972598076E-3,6.750297546E-2
2.016680611E1,2.056239173E-3,-1.575314999E-2,2.444171906E-2
2.017680611E1,1.695274189E-2,-3.851318359E-2,-2.326965332E-2
2.018680611E1,-9.283009917E-3,-8.860170841E-2,-3.749847412E-3
2.019680611E1,9.474880993E-3,-6.217753887E-2,-3.063201904E-3
2.020680611E1,1.064531319E-2,-8.079528809E-2,-4.061889648E-2
2.021680611E1,3.233648092E-2,-1.105480194E-1,4.644012451E-2
2.022680611E1,1.461757813E-2,-1.268695593E-1,9.208679199E-3
2.023680611E1,8.827852085E-3,-1.066672802E-1,3.671550751E-2
2.024680611E1,-1.715487614E-2,-7.267403603E-2,1.527290344E-1
2.025680611E1,-1.461666450E-2,-4.523825645E-2,1.607532501E-1
2.026680611E1,-1.318710484E-2,-7.019221783E-2,2.961635590E-2
2.027680611E1,-3.183072060E-2,-4.281330109E-2,-1.231126785E-1
2.028680611E1,1.914236695E-3,1.231217384E-2,-3.621101379E-2
2.029680611E1,1.921020262E-2,2.776956558E-2,4.366397858E-2
2.030680611E1,4.995066673E-3,6.176924706E-2,4.683780670E-2
2.031680611E1,2.389518358E-2,5.313861370E-2,3.297042847E-2
2.032680615E1,2.935625985E-2,1.420545578E-2,5.956935883E-2
2.033680614E1,-9.465124458E-3,-4.199385643E-3,3.334236145E-2
2.034680615E1,-2.929657698E-3,-3.510475159E-3,2.625846863E-2
2.035680614E1,1.356562227E-2,8.009076118E-3,4.809188843E-2
2.036680614E1,1.119443588E-2,1.541709900E-2,6.284523010E-2
2.038680611E1,-2.306380868E-2,1.209211349E-2,1.314353943E-2
2.039680611E1,-3.666924685E-2,-1.263737679E-2,-2.492237091E-2
2.040680611E1,-5.752915516E-2,-7.918119431E-3,-5.420684814E-3
2.041680611E1,-5.592818558E-2,-4.728209972E-2,1.316108704E-1
2.042680611E1,-3.423428163E-2,1.489090919E-2,7.965278625E-2
2.043680611E1,2.818893641E-3,6.440520287E-3,2.512931824E-2
2.044680611E1,-8.903179318E-3,-2.385973930E-2,1.309690475E-1
2.045680611E1,-3.586702049E-3,-4.973506927E-2,-1.223850250E-2
2.046680611E1,4.277355969E-2,-3.998887539E-2,-2.380657196E-2
2.047680611E1,1.555628330E-2,-1.018874645E-1,-3.535461426E-2
2.048680611E1,-3.376014531E-3,-9.483230114E-2,-1.128196716E-3
2.049680611E1,8.843742311E-3,-8.653283119E-2,2.850151062E-2
2.050680611E1,1.602214575E-2,-9.935307503E-2,5.340957642E-2
2.051680611E1,1.139324531E-2,-7.588326931E-2,8.077716827E-2
2.052680611E1,-4.934791476E-3,-6.486833096E-2,1.230621338E-2
2.053680611E1,-2.563070506E-2,-8.553481102E-2,1.558303833E-2
2.054680611E1,1.351919025E-2,-7.568001747E-3,-1.697731018E-2
2.055680611E1,-1.919759810E-2,-4.547381401E-2,5.566215515E-2
2.056680611E1,1.517097279E-2,-2.550625801E-2,8.660316467E-3
2.057680614E1,2.334792539E-2,5.348920822E-4,-7.388114929E-3
2.058680614E1,3.106912784E-2,-1.237511635E-3,1.463699341E-2
2.059680614E1,-4.627913237E-3,1.512765884E-2,3.650188446E-2
2.060680614E1,1.702986285E-2,2.022743225E-3,5.585479736E-2
2.061680614E1,-1.611709595E-2,-2.101504803E-2,3.684616089E-2
2.063680611E1,-1.858582348E-2,5.743384361E-3,5.406665802E-2
2.064680611E1,-1.210040599E-2,7.593870163E-3,7.352447510E-2
2.065680611E1,-3.687463701E-2,-3.640258312E-2,8.334922791E-2
2.066680611E1,8.048117161E-4,-4.133331776E-2,4.780483246E-2
2.067680611E1,-6.170114875E-2,-3.719329834E-2,-9.363174438E-3
2.068680611E1,-3.043031693E-2,-2.111613750E-2,-9.526348114E-2
2.069680611E1,-1.653466374E-2,-1.656448841E-2,-4.223251343E-2
2.070680611E1,-1.927942783E-2,-1.343452930E-2,-2.256298065E-2
2.071680611E1,-2.589015663E-2,-9.641170502E-3,4.749965668E-2
2.072680611E1,1.797657460E-2,-3.735411167E-2,7.680511475E-2
2.073680611E1,1.577705145E-2,-1.283669472E-2,2.941989899E-2
2.074680611E1,2.600771934E-2,-2.733957767E-2,4.654788971E-2
2.075680611E1,8.627578616E-3,-2.731978893E-2,6.848049164E-2
2.076680611E1,-9.782008827E-3,-4.667294025E-2,4.727172852E-2
2.077680611E1,-2.548504621E-2,-3.740823269E-2,-2.870559692E-4
2.078680611E1,-3.063676506E-2,-3.955316544E-2,2.408027649E-2
2.079680611E1,-3.700286895E-2,-5.192756653E-4,7.487201691E-2
